NAFC_Y2K_HEADER
20003084  50  0.00 -049  0.00 1999-11-26 08:36 1820 S0277 046 V   BB-13        1
20003084 000831  8.00 A 08 #PTCSMFO------------            D 000 0001 0924 000 4
20003084 4 27 37 02 1010.0  38.0   2.2 06 02 24 12 03                          8
-- CHANNEL STATS -->
# span     scan =      4.000, 26072.000
# span     pres =      1.867,   924.695
# span     temp =      3.230,     4.550
# span     cond =      3.103,     3.299
# span      sal =     33.983,    34.867
# span   sigmat =     27.052,    27.732
# span     flor =      0.001,     0.238
# span      oxy =      6.699,     7.802
-- END --
-- HISTORY --> Fri Dec 10 14:00:45 1999
>SELECT_PROBE S
>READ # (DP) T C O F scan pres temp cond oxy flor
>STABILIZE_RESTRICT USING= pres 25.0 5
>RESTRICT USING= pres 0.0 2000.0
>RESTRICT USING= cond 2.0 5.0
>RESTRICT USING= temp -2.0 20.0
>RESTRICT USING= flor 0.001 30.0
>MEDIANFILTER pres 21 1
>MEDIANFILTER temp 21 1
>MEDIANFILTER cond 21 1
>MEDIANFILTER flor 21 1
>MEDIANFILTER oxy 21 1
>SELECT_DN USING= pres
>SALINITY PRESSURE=pres CONDUCTIVITY=cond TEMPERATURE=temp RESULT=sal
>RESTRICT USING= sal 29.0 36.0
>MEDIANFILTER sal 21 1
>SIGMAT SALINITY=sal TEMPERATURE=temp RESULT=sigt
>MEDIANFILTER sigt 21 1
>HISTORY_ON
>WRITEFILE .p?? scan pres temp cond sal sigt oxy flor
-- END --
-- HISTORY --> Sat Jan 29 13:14:03 2000
>READ # T (DP) C S M F O  scan temp pres cond sal sigmat flor oxy
>HISTORY_ON
>SET_NEW_HEADER
>WRITEFILE .p???? scan pres temp cond sal sigmat flor oxy
>END
-- END --
 scan     pres     temp     cond      sal   sigmat     flor      oxy 
-- DATA --
    4    1.867    3.232    3.103   33.983   27.052    0.195    7.702 
   10    1.961    3.232    3.104   33.995   27.062    0.194    7.711 
   16    2.072    3.233    3.104   33.994   27.061    0.195    7.711 
   26    2.318    3.233    3.105   34.006   27.070    0.194    7.710 
   36    2.506    3.232    3.105   34.007   27.071    0.194    7.710 
   52    2.634    3.232    3.106   34.019   27.081    0.195    7.724 
   69    2.724    3.231    3.105   34.008   27.072    0.199    7.748 
  567    2.948    3.232    3.105   34.007   27.071    0.194    7.787 
  814    3.260    3.233    3.105   34.006   27.070    0.191    7.802 
  817    3.508    3.233    3.104   33.993   27.060    0.191    7.802 
  821    3.839    3.233    3.106   34.015   27.077    0.194    7.785 
  825    4.153    3.233    3.106   34.015   27.077    0.194    7.785 
  828    4.356    3.233    3.106   34.015   27.078    0.194    7.785 
  831    4.606    3.233    3.106   34.016   27.079    0.194    7.785 
  834    4.851    3.233    3.106   34.016   27.079    0.195    7.785 
  840    5.289    3.233    3.106   34.017   27.079    0.195    7.785 
  845    5.684    3.233    3.106   34.017   27.079    0.197    7.785 
  850    6.122    3.233    3.106   34.017   27.079    0.197    7.785 
  854    6.385    3.234    3.106   34.017   27.079    0.198    7.784 
  857    6.624    3.234    3.106   34.017   27.079    0.199    7.781 
  860    6.855    3.234    3.106   34.017   27.079    0.199    7.781 
  863    7.141    3.234    3.106   34.017   27.079    0.200    7.779 
  866    7.372    3.234    3.107   34.023   27.083    0.200    7.777 
  869    7.624    3.235    3.107   34.023   27.083    0.201    7.775 
  873    8.060    3.235    3.107   34.023   27.083    0.203    7.768 
  900    8.393    3.235    3.107   34.023   27.083    0.204    7.756 
  942    8.559    3.235    3.107   34.023   27.083    0.204    7.744 
  950    8.811    3.235    3.107   34.023   27.083    0.204    7.742 
  955    9.091    3.235    3.107   34.023   27.083    0.205    7.740 
  958    9.236    3.235    3.107   34.023   27.083    0.205    7.740 
  963    9.608    3.236    3.107   34.023   27.083    0.205    7.740 
  966    9.796    3.236    3.107   34.023   27.083    0.206    7.739 
  969   10.035    3.236    3.107   34.023   27.083    0.206    7.739 
  972   10.266    3.237    3.107   34.022   27.083    0.206    7.736 
  976   10.625    3.237    3.107   34.021   27.082    0.206    7.735 
  980   10.924    3.237    3.107   34.021   27.082    0.207    7.735 
  983   11.189    3.237    3.107   34.021   27.082    0.207    7.727 
  986   11.445    3.237    3.107   34.021   27.082    0.207    7.727 
  989   11.706    3.237    3.107   34.021   27.082    0.207    7.727 
  992   11.941    3.237    3.107   34.021   27.082    0.207    7.727 
  995   12.238    3.237    3.107   34.021   27.082    0.208    7.727 
  998   12.471    3.237    3.107   34.021   27.082    0.208    7.727 
 1001   12.785    3.238    3.107   34.021   27.082    0.208    7.726 
 1004   13.052    3.238    3.107   34.021   27.082    0.208    7.725 
 1007   13.334    3.238    3.107   34.021   27.082    0.209    7.724 
 1010   13.601    3.239    3.107   34.021   27.082    0.209    7.723 
 1013   13.928    3.239    3.108   34.028   27.087    0.209    7.721 
 1016   14.178    3.239    3.108   34.028   27.087    0.210    7.721 
 1019   14.507    3.239    3.108   34.028   27.087    0.210    7.721 
 1022   14.774    3.239    3.108   34.028   27.087    0.210    7.720 
 1025   15.086    3.239    3.108   34.028   27.087    0.210    7.720 
 1028   15.368    3.239    3.108   34.028   27.087    0.210    7.720 
 1036   15.712    3.239    3.108   34.028   27.087    0.210    7.720 
 1107   16.087    3.239    3.108   34.028   27.087    0.210    7.716 
 1115   16.352    3.239    3.108   34.028   27.087    0.213    7.715 
 1125   16.829    3.239    3.108   34.028   27.087    0.223    7.713 
 1129   17.057    3.239    3.108   34.028   27.087    0.223    7.711 
 1132   17.224    3.238    3.108   34.028   27.087    0.223    7.710 
 1136   17.457    3.236    3.107   34.019   27.081    0.223    7.710 
 1140   17.724    3.236    3.107   34.019   27.080    0.223    7.710 
 1143   17.933    3.236    3.107   34.019   27.080    0.223    7.710 
 1146   18.138    3.236    3.107   34.019   27.080    0.223    7.710 
 1149   18.350    3.236    3.107   34.019   27.080    0.223    7.710 
 1154   18.711    3.235    3.107   34.019   27.080    0.223    7.710 
 1160   19.115    3.235    3.107   34.019   27.080    0.223    7.710 
 1164   19.431    3.235    3.107   34.019   27.080    0.223    7.710 
 1167   19.640    3.235    3.107   34.019   27.080    0.223    7.710 
 1170   19.835    3.235    3.107   34.019   27.080    0.223    7.709 
 1173   20.048    3.235    3.107   34.019   27.080    0.223    7.709 
 1176   20.234    3.235    3.107   34.019   27.080    0.223    7.703 
 1180   20.463    3.234    3.107   34.019   27.080    0.223    7.703 
 1184   20.689    3.234    3.107   34.019   27.080    0.223    7.702 
 1192   21.057    3.233    3.107   34.019   27.081    0.223    7.702 
 1201   21.412    3.233    3.107   34.019   27.081    0.223    7.700 
 1252   22.127    3.233    3.107   34.019   27.081    0.223    7.699 
 1278   22.672    3.233    3.107   34.019   27.081    0.223    7.697 
 1287   22.967    3.233    3.107   34.019   27.081    0.223    7.697 
 1292   23.195    3.233    3.107   34.019   27.081    0.223    7.696 
 1298   23.422    3.233    3.107   34.019   27.081    0.223    7.696 
 1301   23.539    3.233    3.107   34.019   27.081    0.223    7.696 
 1307   23.781    3.234    3.107   34.019   27.081    0.225    7.695 
 1314   24.095    3.234    3.107   34.020   27.081    0.225    7.694 
 1325   24.548    3.234    3.107   34.020   27.081    0.225    7.694 
 1331   24.783    3.234    3.108   34.027   27.087    0.226    7.692 
 1335   24.956    3.234    3.108   34.027   27.087    0.226    7.689 
 1347   25.379    3.234    3.108   34.027   27.087    0.228    7.689 
 1363   25.926    3.234    3.108   34.027   27.087    0.228    7.689 
 1522   26.099    3.234    3.108   34.027   27.087    0.229    7.685 
 1943   26.238    3.234    3.108   34.027   27.087    0.229    7.671 
 2006   26.676    3.234    3.108   34.027   27.087    0.230    7.670 
 2015   27.097    3.234    3.108   34.027   27.087    0.230    7.669 
 2020   27.411    3.234    3.108   34.027   27.087    0.230    7.669 
 2029   27.911    3.234    3.108   34.027   27.087    0.231    7.669 
 2033   28.116    3.234    3.108   34.027   27.087    0.231    7.669 
 2036   28.287    3.234    3.108   34.027   27.087    0.232    7.669 
 2039   28.463    3.234    3.108   34.027   27.087    0.232    7.669 
 2042   28.640    3.234    3.108   34.027   27.087    0.232    7.669 
 2045   28.807    3.234    3.108   34.027   27.087    0.232    7.669 
 2051   29.134    3.234    3.108   34.027   27.087    0.232    7.669 
 2055   29.386    3.233    3.108   34.027   27.087    0.232    7.669 
 2062   29.777    3.233    3.108   34.027   27.087    0.232    7.670 
 2072   30.279    3.233    3.108   34.027   27.087    0.232    7.670 
 2081   30.653    3.233    3.108   34.027   27.087    0.232    7.670 
 2092   31.061    3.233    3.108   34.027   27.087    0.232    7.670 
 2097   31.209    3.232    3.108   34.027   27.087    0.232    7.671 
 2105   31.405    3.232    3.108   34.027   27.087    0.232    7.672 
 2145   32.085    3.231    3.108   34.027   27.087    0.233    7.673 
 2164   32.523    3.231    3.108   34.027   27.087    0.233    7.674 
 2174   32.884    3.231    3.108   34.027   27.087    0.233    7.674 
 2180   33.145    3.230    3.107   34.027   27.087    0.233    7.674 
 2183   33.290    3.230    3.107   34.027   27.087    0.233    7.674 
 2186   33.427    3.230    3.107   34.027   27.087    0.233    7.674 
 2194   33.807    3.230    3.107   34.027   27.087    0.233    7.675 
 2199   34.100    3.230    3.107   34.026   27.087    0.233    7.674 
 2205   34.386    3.230    3.108   34.026   27.087    0.233    7.674 
 2208   34.553    3.231    3.108   34.026   27.087    0.233    7.674 
 2211   34.698    3.231    3.108   34.023   27.084    0.233    7.674 
 2216   34.951    3.231    3.108   34.022   27.083    0.233    7.674 
 2221   35.201    3.231    3.108   34.020   27.082    0.233    7.674 
 2226   35.421    3.231    3.108   34.019   27.081    0.233    7.674 
 2231   35.656    3.231    3.108   34.019   27.081    0.233    7.674 
 2239   35.959    3.234    3.108   34.019   27.081    0.233    7.674 
 2247   36.203    3.235    3.108   34.019   27.081    0.233    7.674 
 2263   36.630    3.236    3.108   34.019   27.081    0.233    7.675 
 2274   36.893    3.237    3.108   34.019   27.080    0.234    7.675 
 2279   37.007    3.237    3.108   34.019   27.080    0.234    7.675 
 2283   37.139    3.237    3.108   34.019   27.080    0.234    7.675 
 2294   37.462    3.237    3.108   34.019   27.080    0.234    7.675 
 2302   37.772    3.237    3.108   34.019   27.080    0.233    7.675 
 2308   37.960    3.237    3.108   34.019   27.080    0.233    7.675 
 2312   38.109    3.237    3.108   34.019   27.080    0.233    7.675 
 2323   38.494    3.237    3.108   34.019   27.080    0.233    7.675 
 2333   38.789    3.237    3.108   34.019   27.080    0.233    7.676 
 2338   38.941    3.237    3.108   34.019   27.080    0.231    7.679 
 2347   39.137    3.237    3.108   34.019   27.080    0.230    7.679 
 2365   39.454    3.237    3.108   34.019   27.080    0.230    7.679 
 2377   39.653    3.237    3.108   34.019   27.080    0.230    7.679 
 2383   39.796    3.237    3.108   34.019   27.080    0.230    7.679 
 2394   40.061    3.239    3.109   34.023   27.084    0.231    7.679 
 2398   40.230    3.239    3.109   34.024   27.084    0.231    7.679 
 2401   40.371    3.241    3.109   34.024   27.084    0.231    7.679 
 2404   40.478    3.241    3.109   34.025   27.085    0.231    7.679 
 2407   40.619    3.241    3.109   34.025   27.085    0.231    7.679 
 2410   40.760    3.241    3.109   34.025   27.085    0.231    7.679 
 2413   40.901    3.242    3.109   34.025   27.085    0.231    7.678 
 2420   41.294    3.242    3.109   34.025   27.085    0.231    7.678 
 2425   41.578    3.242    3.109   34.026   27.085    0.232    7.678 
 2428   41.764    3.244    3.110   34.027   27.086    0.233    7.677 
 2431   41.953    3.247    3.110   34.027   27.086    0.234    7.677 
 2434   42.143    3.249    3.110   34.028   27.086    0.235    7.677 
 2437   42.312    3.258    3.111   34.028   27.086    0.235    7.675 
 2440   42.532    3.260    3.111   34.030   27.086    0.235    7.673 
 2443   42.720    3.262    3.111   34.030   27.086    0.235    7.670 
 2446   42.906    3.263    3.111   34.030   27.086    0.235    7.669 
 2449   43.116    3.266    3.112   34.030   27.086    0.235    7.669 
 2452   43.314    3.268    3.112   34.030   27.086    0.235    7.669 
 2455   43.517    3.268    3.112   34.030   27.086    0.235    7.669 
 2458   43.725    3.269    3.112   34.030   27.086    0.235    7.668 
 2461   43.915    3.269    3.112   34.030   27.086    0.235    7.668 
 2465   44.131    3.269    3.112   34.030   27.086    0.235    7.668 
 2469   44.396    3.269    3.112   34.030   27.086    0.235    7.668 
 2475   44.742    3.269    3.112   34.029   27.086    0.233    7.668 
 2481   45.040    3.269    3.112   34.029   27.086    0.233    7.668 
 2484   45.153    3.268    3.112   34.029   27.086    0.232    7.669 
 2488   45.337    3.266    3.112   34.029   27.086    0.231    7.669 
 2492   45.480    3.264    3.111   34.029   27.086    0.230    7.669 
 2497   45.638    3.263    3.111   34.029   27.086    0.230    7.669 
 2507   45.869    3.262    3.111   34.029   27.086    0.230    7.669 
 2548   46.155    3.260    3.111   34.029   27.086    0.230    7.678 
 2594   46.562    3.260    3.111   34.029   27.086    0.230    7.678 
 2598   46.733    3.259    3.111   34.029   27.086    0.230    7.680 
 2601   46.891    3.259    3.111   34.029   27.086    0.230    7.685 
 2604   47.081    3.259    3.111   34.029   27.086    0.230    7.691 
 2607   47.265    3.257    3.111   34.027   27.086    0.230    7.704 
 2610   47.455    3.257    3.111   34.027   27.086    0.230    7.709 
 2613   47.673    3.256    3.111   34.027   27.087    0.230    7.713 
 2618   48.050    3.255    3.111   34.027   27.087    0.233    7.716 
 2621   48.268    3.255    3.111   34.029   27.087    0.234    7.732 
 2624   48.490    3.254    3.111   34.029   27.087    0.235    7.734 
 2627   48.740    3.254    3.111   34.030   27.087    0.236    7.743 
 2630   48.958    3.253    3.111   34.030   27.088    0.236    7.743 
 2633   49.194    3.253    3.110   34.030   27.088    0.236    7.743 
 2636   49.431    3.253    3.110   34.031   27.088    0.237    7.734 
 2639   49.679    3.253    3.110   34.031   27.088    0.237    7.734 
 2642   49.933    3.253    3.110   34.031   27.088    0.238    7.732 
 2645   50.181    3.253    3.111   34.031   27.088    0.238    7.732 
 2648   50.404    3.253    3.111   34.031   27.089    0.238    7.734 
 2651   50.622    3.253    3.111   34.031   27.089    0.238    7.742 
 2654   50.855    3.253    3.111   34.031   27.089    0.238    7.743 
 2657   51.045    3.253    3.111   34.031   27.089    0.238    7.757 
 2661   51.295    3.253    3.111   34.031   27.089    0.238    7.761 
 2666   51.640    3.253    3.111   34.031   27.089    0.238    7.763 
 2673   51.984    3.369    3.125   34.063   27.100    0.238    7.763 
 2679   52.236    3.475    3.133   34.072   27.100    0.238    7.763 
 2687   52.489    3.476    3.134   34.072   27.100    0.238    7.763 
 2735   52.786    3.489    3.135   34.073   27.100    0.238    7.763 
 2774   53.145    3.496    3.136   34.075   27.101    0.220    7.763 
 2781   53.382    3.497    3.136   34.076   27.101    0.218    7.763 
 2793   53.930    3.500    3.136   34.076   27.101    0.214    7.757 
 2801   54.338    3.501    3.137   34.077   27.101    0.213    7.749 
 2806   54.588    3.506    3.137   34.077   27.101    0.212    7.742 
 2810   54.839    3.506    3.137   34.077   27.102    0.211    7.739 
 2813   55.012    3.507    3.137   34.078   27.103    0.210    7.739 
 2816   55.183    3.517    3.139   34.082   27.104    0.210    7.739 
 2821   55.482    3.523    3.139   34.083   27.104    0.208    7.739 
 2824   55.670    3.529    3.140   34.086   27.106    0.206    7.739 
 2830   55.998    3.540    3.140   34.088   27.106    0.203    7.737 
 2836   56.376    3.542    3.141   34.089   27.107    0.201    7.736 
 2841   56.656    3.549    3.142   34.091   27.107    0.200    7.736 
 2846   56.956    3.572    3.144   34.091   27.108    0.199    7.736 
 2853   57.332    3.635    3.152   34.120   27.116    0.197    7.736 
 2858   57.597    3.741    3.163   34.125   27.117    0.197    7.736 
 2861   57.738    3.756    3.163   34.131   27.117    0.196    7.736 
 2865   57.941    3.787    3.167   34.132   27.119    0.194    7.736 
 2869   58.115    3.794    3.167   34.133   27.119    0.192    7.736 
 2876   58.397    3.800    3.168   34.135   27.119    0.188    7.736 
 2882   58.615    3.806    3.168   34.137   27.120    0.182    7.732 
 2894   58.914    3.807    3.168   34.138   27.122    0.176    7.723 
 2960   59.479    3.807    3.169   34.140   27.122    0.170    7.702 
 2976   59.825    3.812    3.169   34.141   27.123    0.169    7.685 
 2980   59.967    3.813    3.170   34.142   27.123    0.169    7.674 
 2984   60.108    3.825    3.170   34.145   27.124    0.169    7.669 
 2989   60.358    3.827    3.171   34.148   27.126    0.168    7.662 
 2995   60.655    3.840    3.173   34.155   27.130    0.168    7.649 
 2998   60.796    3.850    3.174   34.156   27.130    0.168    7.644 
 3001   60.984    3.869    3.176   34.160   27.132    0.168    7.639 
 3008   61.408    4.065    3.201   34.252   27.185    0.165    7.639 
 3013   61.722    4.332    3.230   34.314   27.188    0.159    7.608 
 3016   61.910    4.447    3.240   34.314   27.189    0.153    7.588 
 3020   62.208    4.507    3.246   34.316   27.190    0.144    7.587 
 3024   62.460    4.526    3.247   34.318   27.192    0.136    7.586 
 3030   62.960    4.533    3.248   34.322   27.193    0.122    7.584 
 3034   63.213    4.538    3.249   34.324   27.196    0.116    7.580 
 3037   63.431    4.543    3.250   34.331   27.202    0.112    7.579 
 3040   63.649    4.543    3.251   34.338   27.205    0.108    7.575 
 3043   63.872    4.547    3.251   34.342   27.206    0.106    7.572 
 3046   64.090    4.550    3.252   34.346   27.208    0.104    7.565 
 3049   64.312    4.550    3.252   34.347   27.208    0.101    7.565 
 3053   64.592    4.550    3.253   34.358   27.217    0.097    7.559 
 3062   65.140    4.550    3.254   34.369   27.226    0.093    7.544 
 3068   65.501    4.550    3.254   34.369   27.226    0.090    7.532 
 3071   65.642    4.550    3.255   34.380   27.235    0.088    7.525 
 3075   65.846    4.550    3.255   34.381   27.235    0.085    7.517 
 3083   66.145    4.550    3.255   34.381   27.235    0.080    7.508 
 3132   66.583    4.550    3.255   34.381   27.235    0.072    7.451 
 3203   66.927    4.550    3.257   34.404   27.253    0.069    7.361 
 3208   67.148    4.549    3.257   34.405   27.254    0.067    7.355 
 3212   67.415    4.544    3.257   34.410   27.259    0.065    7.353 
 3221   68.042    4.544    3.258   34.421   27.267    0.064    7.347 
 3224   68.277    4.544    3.258   34.421   27.268    0.064    7.346 
 3227   68.512    4.544    3.258   34.421   27.268    0.064    7.342 
 3230   68.747    4.544    3.259   34.432   27.277    0.064    7.338 
 3233   69.030    4.543    3.259   34.433   27.277    0.064    7.335 
 3236   69.278    4.543    3.259   34.433   27.277    0.063    7.335 
 3239   69.547    4.542    3.259   34.434   27.278    0.063    7.332 
 3242   69.830    4.542    3.259   34.434   27.278    0.063    7.330 
 3246   70.200    4.542    3.260   34.445   27.287    0.062    7.329 
 3250   70.550    4.540    3.261   34.459   27.298    0.062    7.329 
 3253   70.818    4.539    3.261   34.460   27.299    0.062    7.329 
 3256   71.126    4.537    3.261   34.461   27.300    0.062    7.328 
 3259   71.383    4.537    3.261   34.461   27.300    0.062    7.326 
 3262   71.682    4.537    3.261   34.461   27.300    0.062    7.326 
 3265   71.943    4.537    3.261   34.461   27.301    0.062    7.326 
 3269   72.322    4.537    3.261   34.462   27.301    0.062    7.326 
 3273   72.664    4.537    3.261   34.462   27.301    0.062    7.325 
 3277   72.993    4.537    3.261   34.462   27.301    0.061    7.320 
 3281   73.250    4.533    3.261   34.465   27.304    0.061    7.318 
 3288   73.652    4.530    3.261   34.468   27.306    0.061    7.306 
 3295   73.949    4.528    3.261   34.470   27.308    0.060    7.304 
 3301   74.133    4.528    3.261   34.470   27.308    0.057    7.297 
 3345   74.390    4.511    3.261   34.487   27.324    0.052    7.227 
 3408   74.529    4.494    3.260   34.491   27.329    0.049    7.168 
 3413   74.719    4.492    3.260   34.492   27.330    0.049    7.166 
 3418   74.922    4.488    3.260   34.493   27.331    0.049    7.164 
 3422   75.125    4.486    3.260   34.495   27.333    0.049    7.161 
 3425   75.284    4.484    3.259   34.497   27.335    0.049    7.160 
 3430   75.549    4.483    3.259   34.498   27.336    0.049    7.160 
 3435   75.895    4.478    3.259   34.498   27.336    0.049    7.153 
 3438   76.084    4.477    3.259   34.498   27.336    0.049    7.151 
 3441   76.287    4.477    3.259   34.498   27.337    0.048    7.146 
 3444   76.482    4.474    3.259   34.498   27.337    0.048    7.146 
 3447   76.725    4.472    3.259   34.499   27.338    0.048    7.139 
 3450   76.929    4.469    3.259   34.499   27.338    0.049    7.139 
 3453   77.149    4.465    3.259   34.499   27.339    0.049    7.139 
 3456   77.393    4.458    3.258   34.498   27.339    0.049    7.139 
 3459   77.605    4.448    3.257   34.498   27.340    0.049    7.139 
 3462   77.840    4.443    3.257   34.498   27.340    0.049    7.139 
 3467   78.219    4.386    3.251   34.498   27.346    0.049    7.139 
 3470   78.437    4.352    3.248   34.498   27.350    0.049    7.133 
 3475   78.798    4.313    3.245   34.498   27.354    0.049    7.123 
 3478   79.002    4.289    3.242   34.498   27.357    0.049    7.113 
 3481   79.224    4.283    3.242   34.498   27.357    0.049    7.097 
 3484   79.410    4.275    3.241   34.498   27.357    0.049    7.091 
 3487   79.614    4.275    3.241   34.498   27.357    0.049    7.091 
 3490   79.772    4.275    3.241   34.498   27.357    0.049    7.083 
 3493   79.960    4.262    3.240   34.497   27.357    0.049    7.083 
 3496   80.116    4.254    3.239   34.496   27.358    0.048    7.083 
 3499   80.272    4.247    3.238   34.496   27.358    0.047    7.083 
 3502   80.397    4.246    3.238   34.496   27.358    0.046    7.083 
 3505   80.523    4.239    3.238   34.494   27.358    0.045    7.083 
 3509   80.690    4.237    3.238   34.493   27.358    0.044    7.083 
 3516   80.916    4.235    3.237   34.492   27.359    0.042    7.083 
 3521   81.049    4.233    3.237   34.491   27.359    0.041    7.083 
 3530   81.224    4.228    3.237   34.490   27.359    0.039    7.091 
 3551   81.417    4.226    3.237   34.490   27.359    0.038    7.091 
 3574   81.596    4.177    3.230   34.484   27.359    0.037    7.094 
 3583   81.710    4.105    3.225   34.484   27.365    0.037    7.094 
 3589   81.812    4.096    3.224   34.484   27.366    0.037    7.094 
 3610   82.369    4.094    3.224   34.484   27.366    0.036    7.094 
 3624   82.846    4.088    3.223   34.484   27.367    0.036    7.094 
 3628   82.996    4.088    3.223   34.484   27.367    0.035    7.094 
 3631   83.098    4.087    3.223   34.484   27.367    0.035    7.094 
 3634   83.224    4.086    3.223   34.484   27.367    0.034    7.094 
 3637   83.357    4.083    3.223   34.484   27.367    0.034    7.094 
 3643   83.610    4.073    3.222   34.484   27.368    0.034    7.094 
 3647   83.757    4.070    3.222   34.484   27.368    0.034    7.094 
 3651   83.896    4.070    3.222   34.484   27.369    0.034    7.091 
 3657   84.164    4.070    3.222   34.484   27.369    0.034    7.081 
 3660   84.266    4.070    3.222   34.484   27.369    0.034    7.073 
 3663   84.399    4.069    3.222   34.485   27.369    0.034    7.064 
 3666   84.495    4.069    3.222   34.485   27.369    0.034    7.051 
 3670   84.643    4.069    3.222   34.485   27.369    0.034    7.042 
 3676   84.870    4.065    3.222   34.489   27.373    0.033    7.021 
 3679   84.964    4.065    3.222   34.489   27.373    0.032    7.016 
 3682   85.084    4.065    3.222   34.489   27.373    0.031    7.015 
 3685   85.167    4.064    3.222   34.489   27.373    0.031    7.010 
 3689   85.304    4.064    3.222   34.490   27.374    0.031    7.008 
 3694   85.501    4.064    3.222   34.490   27.374    0.031    7.005 
 3703   85.805    4.064    3.222   34.490   27.374    0.031    6.998 
 3709   86.010    4.063    3.222   34.490   27.374    0.031    6.989 
 3712   86.126    4.063    3.222   34.490   27.374    0.031    6.982 
 3719   86.402    4.061    3.222   34.492   27.376    0.031    6.982 
 3724   86.613    4.058    3.222   34.492   27.376    0.030    6.982 
 3727   86.746    4.058    3.222   34.495   27.379    0.030    6.982 
 3730   86.872    4.058    3.222   34.495   27.379    0.030    6.982 
 3733   87.005    4.058    3.222   34.495   27.379    0.030    6.982 
 3736   87.155    4.057    3.222   34.495   27.379    0.030    6.982 
 3739   87.288    4.057    3.222   34.496   27.379    0.030    6.982 
 3742   87.437    4.057    3.222   34.496   27.379    0.030    6.982 
 3745   87.570    4.057    3.222   34.496   27.379    0.030    6.982 
 3748   87.735    4.056    3.222   34.496   27.380    0.030    6.982 
 3752   87.908    4.050    3.222   34.497   27.381    0.031    6.983 
 3756   88.137    4.015    3.218   34.503   27.389    0.031    6.992 
 3759   88.302    3.970    3.215   34.504   27.395    0.031    6.999 
 3762   88.443    3.953    3.214   34.504   27.396    0.031    7.001 
 3765   88.593    3.944    3.213   34.504   27.398    0.031    7.001 
 3768   88.740    3.941    3.213   34.506   27.400    0.031    7.003 
 3771   88.882    3.936    3.212   34.507   27.401    0.030    7.005 
 3775   89.094    3.931    3.212   34.508   27.402    0.030    7.005 
 3779   89.252    3.926    3.212   34.509   27.403    0.030    7.007 
 3782   89.382    3.924    3.211   34.509   27.404    0.030    7.011 
 3789   89.658    3.899    3.209   34.510   27.407    0.030    7.015 
 3793   89.823    3.884    3.208   34.510   27.408    0.030    7.020 
 3797   89.932    3.877    3.208   34.510   27.409    0.030    7.024 
 3800   90.029    3.873    3.207   34.510   27.410    0.030    7.025 
 3804   90.146    3.863    3.206   34.511   27.411    0.029    7.035 
 3810   90.288    3.838    3.204   34.511   27.414    0.026    7.044 
 3815   90.403    3.828    3.203   34.511   27.415    0.025    7.052 
 3829   90.664    3.826    3.203   34.511   27.415    0.023    7.052 
 3838   90.812    3.826    3.203   34.511   27.415    0.023    7.052 
 3852   91.073    3.826    3.203   34.511   27.415    0.022    7.052 
 3857   91.206    3.826    3.203   34.511   27.415    0.022    7.052 
 3863   91.368    3.826    3.203   34.511   27.415    0.022    7.052 
 3868   91.518    3.826    3.203   34.511   27.415    0.022    7.052 
 3871   91.612    3.826    3.203   34.511   27.415    0.022    7.052 
 3874   91.709    3.826    3.203   34.511   27.415    0.022    7.052 
 3877   91.843    3.826    3.203   34.511   27.415    0.021    7.052 
 3880   91.942    3.826    3.203   34.511   27.415    0.021    7.052 
 3887   92.241    3.826    3.204   34.522   27.424    0.021    7.046 
 3890   92.368    3.826    3.204   34.522   27.424    0.020    7.046 
 3893   92.492    3.826    3.205   34.534   27.434    0.020    7.045 
 3896   92.650    3.832    3.206   34.540   27.437    0.020    7.045 
 3899   92.774    3.840    3.207   34.543   27.439    0.020    7.045 
 3903   92.943    3.848    3.208   34.546   27.440    0.020    7.045 
 3907   93.153    3.857    3.209   34.547   27.440    0.019    7.044 
 3913   93.431    3.860    3.209   34.549   27.442    0.019    7.044 
 3917   93.577    3.867    3.210   34.550   27.442    0.019    7.043 
 3920   93.718    3.877    3.212   34.563   27.452    0.018    7.043 
 3924   93.866    3.892    3.214   34.571   27.456    0.017    7.042 
 3930   94.080    3.909    3.216   34.577   27.459    0.017    7.042 
 3938   94.304    3.917    3.217   34.580   27.461    0.017    7.042 
 3951   94.619    3.926    3.218   34.581   27.461    0.017    7.041 
 3965   94.859    3.926    3.218   34.582   27.462    0.017    7.040 
 3977   95.054    3.926    3.218   34.582   27.462    0.017    7.040 
 3983   95.163    3.927    3.218   34.583   27.462    0.017    7.039 
 3992   95.383    3.929    3.219   34.591   27.468    0.016    7.032 
 4000   95.608    3.936    3.220   34.592   27.469    0.016    7.025 
 4003   95.713    3.947    3.221   34.595   27.469    0.016    7.019 
 4006   95.822    3.950    3.221   34.595   27.470    0.016    7.016 
 4011   96.042    3.958    3.222   34.596   27.470    0.015    7.012 
 4014   96.166    3.963    3.223   34.600   27.472    0.014    7.008 
 4017   96.325    3.965    3.223   34.602   27.473    0.014    7.005 
 4022   96.590    3.971    3.224   34.605   27.475    0.014    7.001 
 4025   96.764    3.975    3.225   34.608   27.477    0.014    7.000 
 4028   96.943    3.980    3.225   34.612   27.480    0.013    6.999 
 4031   97.125    3.984    3.226   34.613   27.480    0.013    6.995 
 4034   97.299    3.987    3.226   34.614   27.480    0.012    6.994 
 4039   97.643    3.991    3.227   34.615   27.480    0.011    6.993 
 4042   97.836    3.996    3.227   34.615   27.481    0.011    6.993 
 4046   98.116    4.001    3.228   34.619   27.483    0.010    6.991 
 4050   98.397    4.006    3.228   34.620   27.484    0.010    6.988 
 4053   98.621    4.010    3.229   34.621   27.484    0.010    6.985 
 4056   98.838    4.015    3.230   34.622   27.484    0.009    6.982 
 4059   99.032    4.022    3.230   34.626   27.486    0.009    6.979 
 4062   99.246    4.027    3.231   34.628   27.487    0.009    6.971 
 4066   99.529    4.034    3.232   34.628   27.487    0.009    6.971 
 4070   99.754    4.038    3.232   34.629   27.488    0.009    6.971 
 4073   99.921    4.040    3.232   34.631   27.488    0.009    6.970 
 4080  100.297    4.041    3.233   34.632   27.489    0.009    6.969 
 4086  100.550    4.043    3.233   34.632   27.489    0.009    6.968 
 4093  100.815    4.045    3.233   34.634   27.490    0.009    6.967 
 4170  101.271    4.046    3.233   34.636   27.492    0.009    6.964 
 4201  101.507    4.050    3.234   34.636   27.492    0.009    6.963 
 4205  101.684    4.050    3.234   34.637   27.492    0.010    6.962 
 4212  102.008    4.050    3.234   34.638   27.493    0.010    6.962 
 4218  102.294    4.051    3.234   34.638   27.493    0.010    6.962 
 4223  102.547    4.051    3.234   34.638   27.493    0.010    6.959 
 4227  102.817    4.051    3.235   34.642   27.496    0.010    6.957 
 4234  103.240    4.056    3.235   34.643   27.496    0.012    6.956 
 4237  103.429    4.056    3.235   34.643   27.497    0.012    6.955 
 4240  103.617    4.056    3.235   34.648   27.500    0.012    6.955 
 4247  104.084    4.062    3.236   34.648   27.500    0.012    6.953 
 4252  104.403    4.066    3.237   34.652   27.503    0.013    6.951 
 4256  104.683    4.066    3.237   34.653   27.503    0.013    6.951 
 4260  104.951    4.066    3.237   34.655   27.504    0.013    6.949 
 4263  105.154    4.066    3.237   34.655   27.504    0.013    6.949 
 4268  105.501    4.068    3.237   34.655   27.505    0.013    6.949 
 4273  105.831    4.074    3.238   34.655   27.505    0.013    6.948 
 4276  106.053    4.076    3.238   34.656   27.505    0.013    6.948 
 4279  106.240    4.079    3.238   34.656   27.505    0.013    6.948 
 4282  106.430    4.081    3.239   34.658   27.505    0.013    6.946 
 4289  106.869    4.085    3.239   34.658   27.505    0.013    6.946 
 4297  107.340    4.086    3.239   34.658   27.505    0.013    6.943 
 4308  107.794    4.090    3.240   34.662   27.508    0.013    6.943 
 4316  108.095    4.095    3.240   34.664   27.509    0.012    6.940 
 4401  108.519    4.097    3.241   34.665   27.510    0.012    6.938 
 4416  108.772    4.099    3.241   34.668   27.512    0.012    6.938 
 4426  109.134    4.104    3.242   34.669   27.512    0.012    6.938 
 4430  109.320    4.107    3.242   34.672   27.514    0.011    6.937 
 4436  109.602    4.111    3.243   34.673   27.514    0.011    6.937 
 4442  109.979    4.120    3.244   34.674   27.514    0.010    6.936 
 4445  110.151    4.125    3.244   34.676   27.516    0.010    6.936 
 4448  110.358    4.128    3.245   34.677   27.516    0.010    6.935 
 4451  110.544    4.130    3.245   34.678   27.516    0.010    6.934 
 4454  110.765    4.135    3.245   34.679   27.517    0.010    6.931 
 4457  110.970    4.141    3.246   34.679   27.517    0.010    6.931 
 4460  111.174    4.143    3.246   34.681   27.518    0.010    6.927 
 4464  111.521    4.149    3.247   34.682   27.518    0.010    6.926 
 4470  111.930    4.166    3.249   34.688   27.521    0.010    6.920 
 4473  112.148    4.179    3.251   34.690   27.521    0.010    6.916 
 4476  112.383    4.186    3.251   34.698   27.526    0.010    6.915 
 4481  112.760    4.195    3.253   34.701   27.528    0.010    6.914 
 4484  112.968    4.203    3.254   34.704   27.529    0.010    6.914 
 4487  113.152    4.209    3.254   34.704   27.530    0.010    6.913 
 4490  113.377    4.212    3.255   34.706   27.530    0.010    6.911 
 4493  113.580    4.214    3.255   34.706   27.530    0.009    6.911 
 4496  113.751    4.214    3.255   34.706   27.530    0.009    6.910 
 4499  113.942    4.214    3.255   34.707   27.531    0.009    6.908 
 4502  114.128    4.214    3.255   34.707   27.531    0.008    6.907 
 4506  114.289    4.214    3.255   34.707   27.531    0.008    6.905 
 4510  114.507    4.215    3.255   34.707   27.531    0.007    6.903 
 4514  114.663    4.215    3.255   34.707   27.531    0.007    6.903 
 4521  114.899    4.215    3.255   34.707   27.531    0.007    6.901 
 4562  115.278    4.216    3.255   34.709   27.532    0.007    6.898 
 4626  116.031    4.220    3.256   34.711   27.534    0.007    6.894 
 4632  116.359    4.224    3.257   34.713   27.535    0.007    6.894 
 4635  116.564    4.226    3.257   34.715   27.536    0.007    6.894 
 4639  116.847    4.227    3.257   34.717   27.537    0.007    6.892 
 4643  117.114    4.229    3.257   34.718   27.538    0.006    6.890 
 4647  117.444    4.231    3.258   34.719   27.538    0.006    6.890 
 4651  117.727    4.233    3.258   34.720   27.539    0.006    6.890 
 4654  117.962    4.235    3.258   34.723   27.541    0.006    6.889 
 4659  118.371    4.246    3.260   34.726   27.542    0.006    6.882 
 4662  118.592    4.253    3.261   34.728   27.543    0.006    6.880 
 4665  118.827    4.257    3.261   34.728   27.543    0.006    6.879 
 4668  119.063    4.259    3.261   34.730   27.544    0.006    6.879 
 4671  119.286    4.261    3.261   34.730   27.544    0.006    6.878 
 4674  119.489    4.263    3.262   34.730   27.544    0.005    6.877 
 4683  120.054    4.266    3.262   34.731   27.545    0.005    6.877 
 4686  120.211    4.266    3.262   34.732   27.545    0.005    6.877 
 4691  120.461    4.266    3.262   34.732   27.545    0.005    6.877 
 4704  120.857    4.267    3.262   34.734   27.546    0.005    6.877 
 4793  121.343    4.269    3.262   34.734   27.546    0.005    6.877 
 4800  121.606    4.270    3.263   34.734   27.546    0.005    6.877 
 4804  121.767    4.271    3.263   34.735   27.547    0.005    6.877 
 4810  122.079    4.273    3.263   34.735   27.547    0.005    6.877 
 4815  122.377    4.274    3.263   34.737   27.548    0.005    6.877 
 4819  122.602    4.274    3.263   34.738   27.549    0.005    6.876 
 4822  122.790    4.276    3.264   34.739   27.549    0.005    6.876 
 4825  122.962    4.278    3.264   34.740   27.550    0.005    6.876 
 4828  123.182    4.279    3.264   34.741   27.551    0.006    6.876 
 4831  123.386    4.280    3.264   34.743   27.552    0.006    6.875 
 4834  123.589    4.282    3.265   34.745   27.554    0.006    6.875 
 4837  123.807    4.285    3.265   34.748   27.555    0.006    6.875 
 4842  124.154    4.293    3.266   34.748   27.556    0.006    6.875 
 4845  124.360    4.300    3.267   34.750   27.556    0.006    6.872 
 4848  124.550    4.306    3.268   34.752   27.557    0.006    6.869 
 4851  124.754    4.310    3.268   34.753   27.557    0.006    6.869 
 4856  125.067    4.313    3.268   34.754   27.557    0.006    6.868 
 4859  125.268    4.314    3.269   34.755   27.558    0.006    6.867 
 4862  125.428    4.315    3.269   34.756   27.559    0.006    6.866 
 4866  125.649    4.317    3.269   34.756   27.559    0.006    6.866 
 4870  125.870    4.318    3.269   34.757   27.559    0.006    6.866 
 4874  126.073    4.319    3.269   34.757   27.559    0.006    6.865 
 4878  126.246    4.321    3.269   34.758   27.559    0.006    6.865 
 4883  126.450    4.322    3.270   34.758   27.559    0.006    6.865 
 4886  126.561    4.323    3.270   34.758   27.560    0.006    6.865 
 4892  126.765    4.325    3.270   34.760   27.560    0.005    6.862 
 4898  126.968    4.328    3.270   34.760   27.561    0.005    6.860 
 4902  127.064    4.329    3.270   34.760   27.561    0.005    6.860 
 4909  127.283    4.331    3.271   34.760   27.561    0.005    6.853 
 4915  127.439    4.336    3.271   34.762   27.562    0.005    6.851 
 4920  127.566    4.338    3.271   34.763   27.562    0.005    6.851 
 4923  127.647    4.338    3.271   34.764   27.562    0.005    6.851 
 4928  127.784    4.340    3.272   34.765   27.563    0.005    6.849 
 4933  127.927    4.344    3.272   34.767   27.564    0.005    6.849 
 4948  128.272    4.350    3.273   34.767   27.564    0.005    6.849 
 4955  128.401    4.350    3.273   34.768   27.565    0.005    6.848 
 4960  128.512    4.350    3.273   34.768   27.565    0.005    6.848 
 4966  128.604    4.350    3.273   34.768   27.565    0.005    6.846 
 4995  128.730    4.351    3.273   34.768   27.565    0.005    6.846 
 5032  129.045    4.353    3.274   34.771   27.566    0.005    6.845 
 5045  129.437    4.355    3.274   34.772   27.567    0.006    6.844 
 5051  129.720    4.356    3.274   34.772   27.567    0.006    6.844 
 5054  129.876    4.357    3.274   34.773   27.568    0.006    6.844 
 5057  130.066    4.358    3.274   34.774   27.569    0.006    6.843 
 5060  130.238    4.359    3.275   34.775   27.569    0.006    6.842 
 5063  130.446    4.365    3.275   34.777   27.570    0.006    6.842 
 5066  130.662    4.368    3.275   34.778   27.570    0.006    6.842 
 5069  130.897    4.369    3.276   34.778   27.570    0.006    6.841 
 5072  131.135    4.369    3.276   34.778   27.571    0.006    6.841 
 5075  131.369    4.369    3.276   34.781   27.572    0.006    6.841 
 5078  131.621    4.369    3.276   34.781   27.572    0.006    6.841 
 5081  131.859    4.373    3.276   34.782   27.572    0.006    6.840 
 5084  132.187    4.378    3.277   34.782   27.573    0.006    6.838 
 5087  132.440    4.381    3.277   34.782   27.573    0.006    6.837 
 5092  132.911    4.383    3.277   34.782   27.573    0.006    6.837 
 5095  133.176    4.383    3.277   34.783   27.573    0.006    6.836 
 5098  133.446    4.383    3.278   34.784   27.573    0.005    6.836 
 5101  133.776    4.384    3.278   34.786   27.575    0.005    6.836 
 5104  134.029    4.386    3.278   34.788   27.577    0.004    6.835 
 5107  134.389    4.389    3.278   34.790   27.577    0.004    6.835 
 5110  134.671    4.390    3.279   34.790   27.577    0.004    6.835 
 5113  134.971    4.390    3.279   34.791   27.578    0.004    6.834 
 5116  135.220    4.391    3.279   34.792   27.579    0.004    6.834 
 5120  135.417    4.391    3.279   34.792   27.579    0.004    6.833 
 5124  135.629    4.391    3.279   34.792   27.579    0.004    6.832 
 5130  135.849    4.392    3.279   34.793   27.579    0.004    6.832 
 5200  135.995    4.393    3.279   34.793   27.579    0.004    6.831 
 5242  136.560    4.406    3.281   34.793   27.580    0.004    6.825 
 5245  136.749    4.407    3.281   34.794   27.580    0.004    6.825 
 5248  136.980    4.407    3.281   34.795   27.580    0.004    6.825 
 5251  137.190    4.408    3.281   34.795   27.580    0.004    6.824 
 5254  137.404    4.409    3.281   34.797   27.581    0.005    6.824 
 5257  137.631    4.409    3.281   34.798   27.582    0.005    6.824 
 5260  137.850    4.410    3.281   34.798   27.582    0.005    6.824 
 5263  138.051    4.411    3.281   34.798   27.582    0.005    6.824 
 5268  138.401    4.411    3.282   34.798   27.582    0.005    6.822 
 5271  138.606    4.411    3.282   34.799   27.583    0.005    6.822 
 5274  138.788    4.411    3.282   34.800   27.583    0.005    6.820 
 5277  138.981    4.412    3.282   34.801   27.584    0.006    6.820 
 5282  139.262    4.412    3.282   34.802   27.585    0.006    6.820 
 5285  139.407    4.413    3.282   34.802   27.585    0.006    6.820 
 5292  139.739    4.413    3.282   34.803   27.585    0.006    6.820 
 5299  140.022    4.414    3.282   34.803   27.585    0.006    6.819 
 5309  140.346    4.416    3.282   34.803   27.585    0.005    6.819 
 5315  140.538    4.418    3.282   34.803   27.586    0.004    6.819 
 5329  140.935    4.422    3.283   34.804   27.586    0.004    6.818 
 5337  141.138    4.422    3.283   34.804   27.586    0.004    6.818 
 5361  141.637    4.425    3.283   34.804   27.586    0.004    6.818 
 5419  142.691    4.426    3.284   34.805   27.586    0.004    6.816 
 5432  143.116    4.426    3.284   34.806   27.586    0.004    6.816 
 5439  143.356    4.427    3.284   34.806   27.587    0.004    6.815 
 5444  143.587    4.429    3.284   34.809   27.588    0.004    6.815 
 5449  143.853    4.432    3.285   34.809   27.588    0.004    6.815 
 5453  144.028    4.436    3.285   34.809   27.588    0.004    6.815 
 5457  144.232    4.437    3.285   34.810   27.588    0.004    6.815 
 5461  144.467    4.440    3.285   34.810   27.588    0.004    6.815 
 5464  144.630    4.441    3.285   34.810   27.588    0.004    6.815 
 5467  144.815    4.443    3.286   34.811   27.588    0.004    6.814 
 5470  145.003    4.444    3.286   34.811   27.588    0.004    6.814 
 5473  145.190    4.444    3.286   34.812   27.589    0.004    6.813 
 5476  145.382    4.445    3.286   34.812   27.589    0.004    6.813 
 5479  145.569    4.446    3.286   34.813   27.589    0.004    6.812 
 5482  145.759    4.447    3.286   34.813   27.589    0.004    6.812 
 5485  145.963    4.448    3.286   34.813   27.589    0.004    6.812 
 5490  146.286    4.453    3.287   34.814   27.590    0.004    6.812 
 5493  146.481    4.456    3.287   34.814   27.590    0.004    6.812 
 5496  146.655    4.458    3.288   34.815   27.590    0.004    6.810 
 5499  146.811    4.461    3.288   34.815   27.590    0.004    6.809 
 5503  147.032    4.465    3.288   34.815   27.590    0.004    6.809 
 5508  147.302    4.468    3.289   34.815   27.590    0.004    6.807 
 5514  147.561    4.468    3.289   34.815   27.590    0.002    6.805 
 5518  147.679    4.469    3.289   34.817   27.590    0.002    6.805 
 5599  148.101    4.470    3.289   34.817   27.590    0.002    6.804 
 5610  148.339    4.470    3.289   34.818   27.591    0.002    6.803 
 5619  148.663    4.471    3.289   34.818   27.591    0.002    6.802 
 5626  148.986    4.472    3.289   34.818   27.591    0.002    6.802 
 5631  149.196    4.472    3.289   34.819   27.592    0.002    6.800 
 5640  149.719    4.473    3.289   34.819   27.592    0.002    6.800 
 5643  149.929    4.473    3.289   34.819   27.592    0.002    6.799 
 5646  150.100    4.473    3.289   34.820   27.592    0.002    6.799 
 5650  150.347    4.475    3.289   34.820   27.592    0.002    6.799 
 5654  150.636    4.475    3.290   34.820   27.592    0.002    6.796 
 5658  150.895    4.476    3.290   34.820   27.592    0.002    6.795 
 5662  151.165    4.477    3.290   34.822   27.593    0.002    6.795 
 5669  151.652    4.479    3.290   34.822   27.594    0.002    6.794 
 5672  151.832    4.482    3.290   34.823   27.594    0.002    6.793 
 5675  152.046    4.487    3.291   34.823   27.594    0.002    6.793 
 5678  152.228    4.493    3.292   34.825   27.594    0.002    6.791 
 5684  152.567    4.499    3.292   34.826   27.594    0.002    6.788 
 5689  152.834    4.506    3.293   34.827   27.594    0.002    6.786 
 5697  153.194    4.516    3.294   34.828   27.594    0.002    6.782 
 5715  153.739    4.521    3.295   34.830   27.594    0.002    6.782 
 5754  154.225    4.523    3.295   34.830   27.594    0.001    6.770 
 5769  154.437    4.523    3.295   34.830   27.595    0.001    6.769 
 5785  154.784    4.523    3.295   34.830   27.595    0.001    6.769 
 5796  155.115    4.523    3.295   34.830   27.595    0.001    6.769 
 5801  155.288    4.523    3.295   34.830   27.595    0.001    6.769 
 5807  155.530    4.523    3.295   34.830   27.595    0.001    6.768 
 5814  155.813    4.523    3.295   34.830   27.595    0.001    6.768 
 5818  155.974    4.523    3.295   34.830   27.595    0.001    6.768 
 5821  156.090    4.523    3.295   34.830   27.595    0.001    6.767 
 5828  156.390    4.523    3.295   34.831   27.595    0.001    6.767 
 5832  156.593    4.523    3.295   34.831   27.595    0.001    6.766 
 5857  157.712    4.523    3.295   34.831   27.595    0.001    6.766 
 5860  157.853    4.522    3.295   34.831   27.595    0.001    6.766 
 5863  157.963    4.520    3.295   34.832   27.597    0.001    6.766 
 5866  158.087    4.519    3.295   34.833   27.597    0.001    6.766 
 5870  158.209    4.518    3.295   34.833   27.597    0.001    6.766 
 5875  158.425    4.518    3.295   34.833   27.597    0.001    6.766 
 5883  158.655    4.518    3.295   34.833   27.597    0.001    6.766 
 5894  158.923    4.518    3.295   34.833   27.597    0.001    6.766 
 5904  159.124    4.518    3.295   34.833   27.597    0.001    6.766 
 5915  159.356    4.518    3.295   34.833   27.597    0.001    6.766 
 5947  159.977    4.518    3.295   34.833   27.597    0.002    6.766 
 5952  160.095    4.518    3.295   34.833   27.597    0.002    6.766 
 5961  160.288    4.518    3.295   34.833   27.597    0.002    6.766 
 5970  160.584    4.518    3.295   34.833   27.597    0.002    6.766 
 5974  160.719    4.518    3.295   34.833   27.597    0.002    6.766 
 5977  160.830    4.518    3.295   34.833   27.597    0.003    6.766 
 5980  160.939    4.518    3.295   34.832   27.597    0.003    6.766 
 5983  161.053    4.518    3.295   34.832   27.597    0.003    6.766 
 5986  161.175    4.518    3.295   34.832   27.597    0.003    6.766 
 5989  161.319    4.518    3.295   34.832   27.597    0.003    6.766 
 5992  161.460    4.518    3.295   34.832   27.597    0.003    6.767 
 5995  161.589    4.518    3.295   34.832   27.597    0.003    6.767 
 5998  161.741    4.518    3.295   34.832   27.597    0.003    6.766 
 6001  161.884    4.518    3.295   34.832   27.597    0.003    6.766 
 6005  162.135    4.518    3.295   34.832   27.597    0.003    6.766 
 6009  162.341    4.518    3.295   34.832   27.597    0.003    6.766 
 6013  162.562    4.518    3.295   34.832   27.597    0.003    6.766 
 6020  163.023    4.518    3.295   34.832   27.597    0.003    6.766 
 6026  163.380    4.519    3.296   34.839   27.603    0.003    6.766 
 6029  163.569    4.519    3.296   34.839   27.603    0.003    6.766 
 6032  163.762    4.519    3.296   34.839   27.603    0.003    6.766 
 6035  163.961    4.519    3.296   34.839   27.603    0.003    6.766 
 6038  164.156    4.520    3.296   34.839   27.603    0.003    6.766 
 6041  164.356    4.520    3.296   34.839   27.603    0.003    6.766 
 6044  164.546    4.520    3.296   34.839   27.603    0.003    6.766 
 6047  164.724    4.520    3.296   34.839   27.603    0.003    6.764 
 6050  164.907    4.520    3.296   34.839   27.603    0.003    6.762 
 6055  165.196    4.520    3.296   34.839   27.603    0.003    6.761 
 6135  166.092    4.520    3.296   34.839   27.603    0.003    6.760 
 6161  166.203    4.520    3.296   34.839   27.603    0.003    6.759 
 6167  166.450    4.520    3.296   34.839   27.603    0.002    6.759 
 6173  166.718    4.521    3.296   34.839   27.603    0.002    6.759 
 6179  167.018    4.521    3.296   34.839   27.603    0.002    6.758 
 6183  167.305    4.521    3.296   34.839   27.603    0.002    6.757 
 6186  167.472    4.522    3.296   34.839   27.603    0.002    6.757 
 6189  167.667    4.522    3.296   34.839   27.603    0.002    6.757 
 6192  167.856    4.522    3.296   34.839   27.603    0.002    6.756 
 6195  168.062    4.522    3.296   34.839   27.603    0.002    6.756 
 6198  168.261    4.522    3.296   34.839   27.603    0.002    6.755 
 6201  168.454    4.524    3.296   34.839   27.603    0.002    6.755 
 6266  171.393    4.527    3.297   34.841   27.603    0.002    6.755 
 6274  171.571    4.527    3.297   34.841   27.603    0.002    6.751 
 6283  171.774    4.527    3.297   34.841   27.603    0.002    6.751 
 6288  171.920    4.528    3.298   34.848   27.608    0.002    6.751 
 6295  172.107    4.530    3.298   34.848   27.608    0.002    6.749 
 6299  172.218    4.530    3.298   34.848   27.608    0.002    6.749 
 6308  172.516    4.530    3.298   34.848   27.608    0.002    6.748 
 6311  172.658    4.530    3.298   34.848   27.608    0.002    6.747 
 6315  172.821    4.530    3.298   34.848   27.608    0.002    6.746 
 6320  173.035    4.530    3.298   34.848   27.608    0.002    6.746 
 6325  173.245    4.530    3.298   34.848   27.608    0.002    6.746 
 6329  173.416    4.530    3.298   34.848   27.608    0.002    6.745 
 6335  173.697    4.530    3.298   34.848   27.608    0.002    6.744 
 6339  173.841    4.530    3.298   34.848   27.608    0.002    6.744 
 6347  174.154    4.530    3.298   34.848   27.608    0.002    6.743 
 6356  174.469    4.530    3.298   34.848   27.608    0.002    6.742 
 6365  174.754    4.530    3.298   34.848   27.608    0.002    6.742 
 6375  174.992    4.530    3.298   34.848   27.608    0.002    6.742 
 6387  175.215    4.530    3.298   34.848   27.608    0.002    6.741 
 6399  175.417    4.530    3.298   34.848   27.608    0.002    6.739 
 6411  175.652    4.530    3.298   34.848   27.608    0.002    6.739 
 6419  175.858    4.530    3.298   34.848   27.608    0.002    6.739 
 6424  176.002    4.530    3.298   34.848   27.608    0.002    6.739 
 6429  176.171    4.530    3.298   34.848   27.608    0.002    6.739 
 6433  176.315    4.530    3.298   34.848   27.608    0.002    6.738 
 6438  176.549    4.530    3.298   34.848   27.608    0.002    6.738 
 6534  179.812    4.531    3.299   34.854   27.613    0.002    6.730 
 6546  180.206    4.531    3.299   34.854   27.613    0.002    6.726 
 6555  180.571    4.531    3.299   34.854   27.613    0.002    6.725 
 6563  180.886    4.531    3.299   34.854   27.613    0.002    6.725 
 6566  181.027    4.531    3.299   34.854   27.613    0.002    6.725 
 6570  181.199    4.531    3.299   34.854   27.613    0.002    6.725 
 6574  181.405    4.531    3.299   34.854   27.613    0.002    6.724 
 6581  181.767    4.531    3.299   34.855   27.613    0.002    6.722 
 6586  182.020    4.531    3.299   34.855   27.613    0.002    6.722 
 6590  182.256    4.531    3.299   34.855   27.614    0.001    6.721 
 6596  182.571    4.531    3.299   34.855   27.614    0.001    6.720 
 6601  182.822    4.531    3.299   34.855   27.614    0.001    6.720 
 6607  183.154    4.530    3.299   34.855   27.614    0.001    6.719 
 6621  183.800    4.530    3.299   34.855   27.614    0.001    6.719 
 6630  184.212    4.530    3.299   34.855   27.614    0.001    6.718 
 6642  184.666    4.530    3.299   34.855   27.614    0.001    6.716 
 6651  184.968    4.530    3.299   34.855   27.614    0.001    6.715 
 6723  186.557    4.528    3.299   34.855   27.614    0.001    6.714 
 6739  186.984    4.527    3.299   34.856   27.615    0.001    6.713 
 6748  187.267    4.525    3.299   34.858   27.617    0.001    6.713 
 6757  187.630    4.525    3.299   34.858   27.617    0.001    6.712 
 6771  188.183    4.523    3.299   34.860   27.618    0.001    6.711 
 6917  193.932    4.506    3.298   34.863   27.623    0.001    6.710 
 6937  194.329    4.505    3.298   34.863   27.623    0.001    6.708 
 7043  197.969    4.503    3.298   34.863   27.623    0.001    6.704 
 7048  198.284    4.503    3.298   34.863   27.623    0.001    6.703 
 7051  198.473    4.503    3.298   34.863   27.624    0.001    6.703 
 7054  198.647    4.503    3.298   34.863   27.624    0.001    6.703 
 7057  198.850    4.503    3.298   34.864   27.624    0.001    6.703 
 7096  200.491    4.497    3.298   34.864   27.624    0.001    6.702 
 7101  200.614    4.497    3.298   34.864   27.624    0.001    6.700 
 7114  200.882    4.496    3.298   34.866   27.626    0.001    6.699 
 7119  200.978    4.496    3.298   34.866   27.626    0.001    6.699 
 7124  201.088    4.495    3.298   34.866   27.626    0.001    6.699 
 7134  201.276    4.495    3.297   34.866   27.626    0.001    6.699 
 7141  201.422    4.494    3.297   34.866   27.627    0.001    6.699 
 7289  206.858    4.483    3.297   34.866   27.628    0.001    6.699 
 7303  207.158    4.483    3.297   34.866   27.628    0.001    6.699 
 7505  213.990    4.479    3.297   34.866   27.629    0.001    6.699 
 7515  214.273    4.478    3.297   34.867   27.629    0.001    6.699 
 7733  222.794    4.466    3.296   34.867   27.630    0.001    6.700 
 7742  223.056    4.466    3.296   34.867   27.630    0.001    6.701 
 7748  223.307    4.466    3.296   34.866   27.630    0.001    6.701 
 7754  223.543    4.466    3.296   34.866   27.630    0.002    6.701 
 7758  223.749    4.465    3.296   34.866   27.630    0.002    6.701 
 7764  224.064    4.465    3.296   34.866   27.630    0.002    6.702 
 7769  224.348    4.465    3.296   34.866   27.630    0.002    6.702 
 7772  224.539    4.465    3.296   34.866   27.630    0.002    6.702 
 7776  224.775    4.465    3.296   34.866   27.630    0.002    6.702 
 7780  225.041    4.464    3.296   34.866   27.630    0.002    6.702 
 7783  225.249    4.463    3.296   34.866   27.630    0.002    6.702 
 7786  225.455    4.461    3.296   34.866   27.630    0.002    6.702 
 7791  225.800    4.457    3.295   34.866   27.630    0.002    6.702 
 7794  226.021    4.455    3.295   34.866   27.630    0.002    6.703 
 7797  226.243    4.453    3.295   34.866   27.631    0.002    6.703 
 7800  226.464    4.452    3.295   34.866   27.631    0.002    6.703 
 7803  226.659    4.452    3.295   34.866   27.631    0.002    6.703 
 7806  226.874    4.452    3.295   34.866   27.631    0.002    6.703 
 7809  227.095    4.452    3.295   34.866   27.631    0.002    6.703 
 7913  229.279    4.452    3.295   34.866   27.631    0.002    6.704 
 7918  229.558    4.451    3.295   34.866   27.631    0.003    6.704 
 7924  229.926    4.451    3.295   34.864   27.631    0.003    6.704 
 7927  230.125    4.451    3.295   34.864   27.631    0.003    6.704 
 8114  237.282    4.440    3.294   34.864   27.631    0.003    6.704 
 8274  243.776    4.425    3.293   34.864   27.632    0.003    6.707 
 8318  244.220    4.425    3.293   34.864   27.632    0.003    6.708 
 8321  244.409    4.425    3.293   34.864   27.632    0.003    6.708 
 8326  244.757    4.425    3.293   34.864   27.632    0.003    6.708 
 8329  244.976    4.425    3.293   34.864   27.632    0.003    6.708 
 8332  245.182    4.424    3.293   34.864   27.633    0.003    6.708 
 8335  245.386    4.424    3.293   34.864   27.633    0.003    6.708 
 8338  245.607    4.424    3.293   34.864   27.633    0.003    6.709 
 8341  245.828    4.423    3.293   34.864   27.633    0.003    6.709 
 8344  246.034    4.423    3.293   34.864   27.633    0.003    6.709 
 8347  246.255    4.422    3.293   34.864   27.633    0.003    6.709 
 8350  246.476    4.422    3.293   34.865   27.633    0.003    6.709 
 8353  246.682    4.422    3.293   34.865   27.633    0.003    6.709 
 8356  246.889    4.421    3.293   34.865   27.634    0.003    6.709 
 8360  247.125    4.420    3.293   34.865   27.634    0.003    6.709 
 8364  247.406    4.419    3.293   34.865   27.634    0.003    6.709 
 8369  247.709    4.419    3.293   34.865   27.634    0.003    6.709 
 8372  247.898    4.418    3.293   34.865   27.634    0.003    6.710 
 8375  248.059    4.418    3.293   34.865   27.634    0.003    6.711 
 8378  248.231    4.418    3.293   34.865   27.635    0.003    6.711 
 8381  248.372    4.418    3.293   34.866   27.635    0.002    6.712 
 8387  248.658    4.417    3.293   34.866   27.635    0.002    6.716 
10097  304.798    4.292    3.284   34.866   27.648    0.002    6.719 
10100  304.952    4.292    3.284   34.866   27.649    0.002    6.720 
10104  305.189    4.292    3.284   34.866   27.649    0.001    6.720 
10110  305.539    4.292    3.284   34.866   27.649    0.001    6.731 
10113  305.713    4.292    3.284   34.866   27.649    0.001    6.735 
10278  310.748    4.277    3.283   34.865   27.649    0.001    6.735 
10290  311.082    4.277    3.283   34.865   27.649    0.001    6.735 
10296  311.303    4.276    3.283   34.865   27.649    0.001    6.736 
10300  311.462    4.276    3.283   34.865   27.650    0.001    6.736 
10395  316.943    4.239    3.280   34.865   27.653    0.001    6.747 
11521  353.026    4.156    3.274   34.865   27.662    0.001    6.770 
11524  353.138    4.156    3.274   34.864   27.662    0.001    6.772 
12000  372.485    4.089    3.269   34.864   27.669    0.001    6.786 
13654  433.679    3.904    3.254   34.858   27.682    0.001    6.805 
13670  433.948    3.903    3.254   34.857   27.682    0.001    6.810 
14013  447.876    3.867    3.251   34.857   27.682    0.001    6.812 
14016  448.050    3.866    3.251   34.857   27.683    0.001    6.812 
14020  448.259    3.866    3.251   34.853   27.683    0.001    6.814 
14027  448.591    3.865    3.251   34.852   27.683    0.001    6.814 
14031  448.768    3.865    3.251   34.852   27.683    0.001    6.814 
14039  449.038    3.865    3.251   34.852   27.683    0.001    6.814 
14219  454.453    3.862    3.251   34.852   27.686    0.001    6.818 
14222  454.642    3.862    3.251   34.852   27.686    0.001    6.819 
15650  510.984    3.770    3.246   34.852   27.691    0.001    6.819 
15661  511.339    3.770    3.246   34.851   27.692    0.001    6.823 
15852  518.952    3.767    3.246   34.851   27.692    0.001    6.823 
15865  519.226    3.766    3.246   34.853   27.693    0.001    6.823 
16601  549.312    3.758    3.246   34.854   27.695    0.001    6.823 
16606  549.552    3.757    3.246   34.854   27.695    0.001    6.823 
17757  594.969    3.710    3.244   34.854   27.700    0.001    6.823 
17763  595.146    3.709    3.244   34.854   27.700    0.001    6.823 
21207  721.439    3.554    3.236   34.854   27.708    0.001    6.823 
21210  721.602    3.554    3.236   34.854   27.715    0.001    6.823 
21213  721.747    3.554    3.236   34.856   27.717    0.001    6.834 
21218  722.005    3.554    3.235   34.844   27.708    0.001    6.834 
23412  809.181    3.513    3.236   34.854   27.720    0.001    6.809 
23415  809.312    3.513    3.236   34.854   27.719    0.001    6.809 
23419  809.531    3.513    3.236   34.854   27.719    0.001    6.810 
23423  809.746    3.513    3.236   34.854   27.719    0.001    6.809 
23427  809.942    3.513    3.236   34.854   27.719    0.001    6.811 
23431  810.168    3.513    3.236   34.853   27.719    0.001    6.809 
23435  810.352    3.513    3.236   34.853   27.719    0.001    6.810 
25185  887.809    3.457    3.235   34.860   27.730    0.001    6.805 
26072  924.695    3.449    3.236   34.862   27.732    0.001    6.790 
