NAFC_Y2K_HEADER
48104029  58  7.78 -059 54.66 2009-07-24 12:54 0254 S4776 24t t repeat set     1
48104029 002267  1.00 A 06 #PTCSM--------------            B 000 9999 -999 000 4
48104029 3 30 02 02 1019.0 000.0 000.0 02 01 30 02 01                          8
-- CHANNEL STATS -->
# span     scan =    222.000,  2488.000
# span     pres =      0.289,   244.118
# span     temp =     -1.019,     4.606
# span     cond =      2.672,     3.098
# span      sal =     31.419,    34.396
# span     sigt =     24.879,    27.433
-- END --
!! ACQUIRED USING > AQUIRE 4.012     AT 2009-07-24 11:11:14
cast   1 24 Jul 2009 05:21:18 samples 1 to 2996, avg = 4, stop = mag switch
-- HISTORY --> Tue Sep 15 14:22:52 2009
>READ # (DP) T C scan pres temp cond
>STABILIZE_RESTRICT USING= pres  5.0 5
>RESTRICT USING= pres 0.0 2000.0
>RESTRICT USING= cond 2.0 5.0
>RESTRICT USING= temp -1.9 22.0
>MEDIANFILTER pres 7 1
>MEDIANFILTER temp 7 1
>MEDIANFILTER cond 7 1
>SALINITY PRESSURE=pres CONDUCTIVITY=cond TEMPERATURE=temp RESULT=sal
>RESTRICT USING= sal 25.0 36.0
>MEDIANFILTER sal 7 1
>SIGMAT SALINITY=sal TEMPERATURE=temp RESULT=sigt
>MEDIANFILTER sigt 7 1
>HISTORY_ON
>WRITEFILE  .p???? scan pres temp cond sal sigt
-- END --
 scan     pres     temp     cond      sal     sigt 
-- DATA --
  222    0.915    4.606    3.002   31.419   24.879 
  223    1.044    4.606    3.042   31.871   25.237 
  224    1.194    4.604    3.027   31.710   25.110 
  225    1.291    4.602    3.034   31.792   25.175 
  226    1.399    4.602    3.034   31.792   25.175 
  227    1.474    4.600    3.033   31.792   25.175 
  228    1.603    4.594    3.034   31.800   25.182 
  229    1.818    4.594    3.039   31.849   25.221 
  230    2.227    4.592    3.040   31.872   25.240 
  231    2.840    4.591    3.040   31.873   25.241 
  232    3.454    4.589    3.040   31.874   25.242 
  233    4.045    4.556    3.041   31.913   25.276 
  234    4.583    4.541    3.042   31.941   25.299 
  235    5.110    4.541    3.042   31.941   25.299 
  236    5.648    4.541    3.042   31.941   25.299 
  237    6.218    4.541    3.042   31.941   25.299 
  238    6.789    4.545    3.042   31.936   25.295 
  239    7.337    4.549    3.041   31.921   25.283 
  240    7.864    4.549    3.041   31.921   25.283 
  241    8.359    4.551    3.041   31.921   25.283 
  431    8.777    3.469    2.964   32.054   25.493 
  432    8.928    3.483    2.964   32.047   25.486 
  433    9.024    3.483    2.962   32.032   25.474 
  434    9.078    3.483    2.962   32.032   25.474 
  435    9.175    3.483    2.961   32.015   25.461 
  436    9.261    3.477    2.961   32.011   25.458 
  437    9.304    3.445    2.955   31.981   25.439 
  438    9.422    3.440    2.953   31.981   25.439 
  439    9.605    3.432    2.953   31.981   25.439 
  440    9.777    3.422    2.953   31.981   25.439 
  441    9.981    3.380    2.953   31.990   25.450 
  442   10.175    3.369    2.952   31.999   25.458 
  443   10.390    3.342    2.947   32.010   25.469 
  444   10.637    3.270    2.942   32.017   25.482 
  445   10.938    3.203    2.939   32.019   25.489 
  446   11.239    3.148    2.933   32.025   25.499 
  447   11.551    3.088    2.931   32.041   25.516 
  448   11.863    3.046    2.928   32.041   25.520 
  449   12.175    3.001    2.924   32.041   25.523 
  450   12.498    2.950    2.920   32.041   25.528 
  451   12.810    2.891    2.912   32.045   25.536 
  452   13.122    2.790    2.904   32.042   25.542 
  453   13.455    2.679    2.899   32.045   25.553 
  454   13.799    2.599    2.892   32.042   25.557 
  455   14.144    2.484    2.881   32.056   25.578 
  456   14.509    2.364    2.875   32.060   25.590 
  457   14.864    2.253    2.861   32.060   25.599 
  458   15.198    2.095    2.851   32.079   25.625 
  459   15.553    1.972    2.845   32.092   25.645 
  460   15.886    1.881    2.836   32.105   25.661 
  461   16.220    1.797    2.831   32.118   25.677 
  462   16.575    1.733    2.827   32.118   25.682 
  463   16.940    1.685    2.823   32.118   25.685 
  464   17.295    1.635    2.819   32.118   25.689 
  465   17.683    1.567    2.811   32.121   25.696 
  466   18.048    1.421    2.792   32.121   25.705 
  467   18.414    1.180    2.779   32.121   25.720 
  468   18.758    1.027    2.775   32.189   25.784 
  469   19.070    0.956    2.771   32.215   25.809 
  470   19.404    0.896    2.768   32.221   25.818 
  471   19.780    0.861    2.765   32.232   25.828 
  472   20.125    0.814    2.760   32.237   25.835 
  473   20.490    0.746    2.756   32.242   25.842 
  474   20.856    0.688    2.752   32.252   25.854 
  475   21.222    0.627    2.749   32.272   25.873 
  476   21.577    0.578    2.746   32.284   25.886 
  477   21.921    0.528    2.744   32.306   25.906 
  478   22.276    0.496    2.742   32.316   25.916 
  479   22.631    0.472    2.740   32.318   25.919 
  480   23.008    0.440    2.738   32.319   25.921 
  481   23.406    0.402    2.735   32.332   25.933 
  482   23.750    0.364    2.735   32.351   25.950 
  483   24.148    0.347    2.733   32.357   25.957 
  484   24.482    0.310    2.730   32.360   25.961 
  485   24.826    0.253    2.726   32.364   25.966 
  486   25.192    0.203    2.726   32.376   25.979 
  487   25.547    0.184    2.721   32.387   25.989 
  488   25.923    0.111    2.716   32.412   26.012 
  489   26.310    0.037    2.713   32.420   26.022 
  490   26.698   -0.039    2.708   32.438   26.040 
  491   27.085   -0.112    2.704   32.465   26.065 
  492   27.472   -0.183    2.701   32.496   26.094 
  493   27.859   -0.242    2.699   32.525   26.119 
  494   28.268   -0.295    2.695   32.530   26.125 
  495   28.655   -0.353    2.691   32.550   26.144 
  496   29.096   -0.403    2.690   32.579   26.169 
  497   29.516   -0.428    2.688   32.587   26.177 
  498   29.936   -0.453    2.687   32.603   26.191 
  499   30.355   -0.472    2.686   32.605   26.193 
  500   30.796   -0.496    2.685   32.619   26.206 
  501   31.226   -0.520    2.684   32.633   26.218 
  502   31.668   -0.552    2.682   32.637   26.222 
  503   32.087   -0.597    2.679   32.648   26.233 
  504   32.496   -0.639    2.679   32.693   26.271 
  505   32.969   -0.650    2.679   32.702   26.279 
  506   33.389   -0.659    2.679   32.711   26.286 
  507   33.830   -0.675    2.678   32.719   26.293 
  508   34.271   -0.698    2.678   32.740   26.311 
  509   34.733   -0.700    2.678   32.741   26.312 
  510   35.185   -0.711    2.678   32.749   26.319 
  511   35.648   -0.726    2.678   32.764   26.332 
  512   36.132   -0.733    2.678   32.771   26.337 
  513   36.605   -0.739    2.678   32.777   26.343 
  514   37.046   -0.743    2.677   32.779   26.344 
  515   37.508   -0.749    2.677   32.783   26.348 
  516   37.960   -0.757    2.677   32.790   26.354 
  517   38.423   -0.766    2.677   32.797   26.359 
  518   38.896   -0.794    2.676   32.805   26.367 
  519   39.348   -0.816    2.675   32.809   26.371 
  520   39.821   -0.823    2.675   32.823   26.383 
  521   40.305   -0.836    2.672   32.831   26.390 
  522   40.800   -0.866    2.672   32.836   26.395 
  523   41.273   -0.870    2.672   32.837   26.396 
  524   41.757   -0.870    2.672   32.838   26.396 
  525   42.209   -0.870    2.672   32.839   26.398 
  526   42.693   -0.871    2.672   32.839   26.398 
  527   43.177   -0.871    2.672   32.839   26.398 
  528   43.650   -0.876    2.672   32.849   26.406 
  529   44.134   -0.880    2.673   32.857   26.413 
  530   44.629   -0.890    2.674   32.880   26.432 
  531   45.102   -0.893    2.675   32.909   26.455 
  532   45.586   -0.896    2.676   32.924   26.467 
  533   46.049   -0.901    2.676   32.931   26.473 
  534   46.554   -0.903    2.677   32.935   26.476 
  535   47.060   -0.905    2.677   32.938   26.479 
  536   47.554   -0.914    2.677   32.948   26.487 
  537   48.060   -0.924    2.677   32.962   26.499 
  538   48.533   -0.926    2.677   32.969   26.505 
  539   48.995   -0.929    2.677   32.973   26.508 
  540   49.469   -0.930    2.678   32.976   26.510 
  541   49.974   -0.932    2.678   32.984   26.517 
  542   50.469   -0.934    2.678   32.991   26.523 
  543   50.974   -0.936    2.679   32.997   26.527 
  544   51.480   -0.937    2.679   32.997   26.528 
  545   51.964   -0.938    2.679   33.000   26.531 
  546   52.469   -0.938    2.679   33.003   26.533 
  547   52.953   -0.938    2.679   33.005   26.535 
  548   53.426   -0.940    2.679   33.008   26.537 
  549   53.900   -0.941    2.679   33.009   26.538 
  550   54.384   -0.941    2.679   33.010   26.538 
  551   54.868   -0.943    2.679   33.011   26.540 
  552   55.351   -0.944    2.679   33.013   26.541 
  553   55.846   -0.945    2.680   33.016   26.543 
  554   56.309   -0.945    2.680   33.018   26.545 
  555   56.803   -0.946    2.680   33.020   26.546 
  556   57.276   -0.947    2.680   33.024   26.550 
  557   57.771   -0.948    2.680   33.026   26.552 
  558   58.266   -0.949    2.680   33.028   26.553 
  559   58.771   -0.950    2.680   33.029   26.554 
  560   59.255   -0.950    2.680   33.029   26.555 
  561   59.739   -0.951    2.680   33.032   26.556 
  562   60.223   -0.951    2.681   33.033   26.557 
  563   60.718   -0.951    2.681   33.034   26.558 
  564   61.212   -0.951    2.681   33.034   26.559 
  565   61.675   -0.952    2.681   33.035   26.559 
  566   62.116   -0.952    2.681   33.035   26.559 
  567   62.567   -0.953    2.681   33.036   26.560 
  568   63.030   -0.954    2.681   33.037   26.561 
  569   63.481   -0.955    2.681   33.039   26.563 
  570   63.944   -0.956    2.681   33.040   26.563 
  571   64.385   -0.956    2.681   33.040   26.564 
  572   64.847   -0.957    2.681   33.042   26.565 
  573   65.277   -0.958    2.681   33.044   26.566 
  574   65.729   -0.959    2.681   33.047   26.569 
  575   66.159   -0.960    2.681   33.051   26.572 
  576   66.589   -0.961    2.682   33.058   26.578 
  577   67.008   -0.963    2.682   33.064   26.583 
  578   67.449   -0.964    2.682   33.068   26.587 
  579   67.912   -0.965    2.683   33.073   26.591 
  580   68.374   -0.965    2.683   33.077   26.594 
  581   68.858   -0.965    2.683   33.081   26.597 
  582   69.352   -0.966    2.684   33.089   26.603 
  583   69.836   -0.967    2.684   33.097   26.610 
  584   70.320   -0.968    2.685   33.103   26.615 
  585   70.815   -0.968    2.685   33.104   26.616 
  586   71.299   -0.968    2.685   33.107   26.618 
  587   71.761   -0.968    2.685   33.109   26.620 
  588   72.202   -0.968    2.686   33.113   26.623 
  589   72.654   -0.968    2.686   33.116   26.625 
  590   73.116   -0.968    2.686   33.120   26.629 
  591   73.578   -0.969    2.686   33.122   26.630 
  592   74.062   -0.970    2.686   33.125   26.632 
  593   74.546   -0.972    2.687   33.128   26.636 
  594   75.051   -0.973    2.687   33.130   26.637 
  595   75.578   -0.973    2.687   33.134   26.640 
  596   76.094   -0.974    2.687   33.137   26.642 
  597   76.557   -0.974    2.687   33.141   26.646 
  598   77.041   -0.975    2.687   33.142   26.647 
  599   77.503   -0.976    2.688   33.145   26.649 
  600   77.955   -0.978    2.688   33.149   26.652 
  601   78.406   -0.980    2.688   33.153   26.655 
  602   78.890   -0.981    2.688   33.158   26.660 
  603   79.385   -0.982    2.688   33.163   26.664 
  604   79.890   -0.984    2.689   33.167   26.667 
  605   80.406   -0.984    2.689   33.169   26.669 
  606   80.911   -0.984    2.689   33.170   26.669 
  607   81.428   -0.984    2.689   33.172   26.671 
  608   81.890   -0.983    2.690   33.178   26.676 
  609   82.363   -0.982    2.690   33.179   26.677 
  610   82.836   -0.981    2.690   33.181   26.679 
  611   83.320   -0.980    2.690   33.182   26.680 
  612   83.804   -0.979    2.691   33.186   26.682 
  613   84.309   -0.978    2.691   33.187   26.683 
  614   84.793   -0.977    2.691   33.190   26.686 
  615   85.309   -0.977    2.691   33.194   26.688 
  616   85.825   -0.976    2.692   33.196   26.691 
  617   86.331   -0.975    2.692   33.202   26.696 
  618   86.847   -0.970    2.694   33.224   26.713 
  619   87.320   -0.954    2.696   33.233   26.719 
  620   87.804   -0.942    2.697   33.235   26.721 
  621   88.309   -0.937    2.698   33.235   26.721 
  622   88.803   -0.932    2.699   33.246   26.730 
  623   89.287   -0.920    2.701   33.252   26.734 
  624   89.782   -0.917    2.701   33.255   26.736 
  625   90.298   -0.916    2.702   33.272   26.750 
  626   90.793   -0.892    2.707   33.286   26.760 
  627   91.298   -0.869    2.707   33.286   26.760 
  628   91.825   -0.864    2.708   33.287   26.760 
  629   92.319   -0.862    2.708   33.287   26.760 
  630   92.846   -0.861    2.708   33.287   26.760 
  631   93.341   -0.860    2.708   33.287   26.760 
  632   93.857   -0.859    2.708   33.288   26.761 
  633   94.373   -0.858    2.709   33.291   26.763 
  634   94.868   -0.856    2.709   33.291   26.763 
  635   95.362   -0.855    2.709   33.293   26.765 
  636   95.878   -0.852    2.710   33.297   26.767 
  637   96.394   -0.848    2.710   33.297   26.767 
  638   96.910   -0.846    2.710   33.297   26.768 
  639   97.426   -0.844    2.711   33.303   26.773 
  640   97.921   -0.833    2.713   33.311   26.778 
  641   98.405   -0.822    2.713   33.316   26.782 
  642   98.910   -0.815    2.714   33.316   26.782 
  643   99.415   -0.806    2.716   33.321   26.785 
  644   99.942   -0.795    2.716   33.322   26.786 
  645  100.448   -0.790    2.717   33.323   26.786 
  646  100.974   -0.788    2.717   33.323   26.786 
  647  101.512   -0.788    2.717   33.323   26.786 
  648  102.039   -0.788    2.717   33.323   26.786 
  649  102.566   -0.788    2.717   33.323   26.786 
  650  103.071   -0.789    2.717   33.324   26.787 
  651  103.587   -0.789    2.717   33.324   26.787 
  652  104.092   -0.789    2.717   33.325   26.788 
  653  104.608   -0.789    2.717   33.327   26.790 
  654  105.114   -0.788    2.718   33.327   26.790 
  655  105.640   -0.788    2.718   33.330   26.792 
  656  106.157   -0.785    2.718   33.333   26.795 
  657  106.662   -0.783    2.719   33.335   26.796 
  658  107.167   -0.782    2.719   33.336   26.797 
  659  107.673   -0.780    2.720   33.348   26.806 
  660  108.189   -0.768    2.722   33.361   26.817 
  661  108.694   -0.753    2.723   33.364   26.819 
  662  109.188   -0.745    2.724   33.369   26.822 
  663  109.683   -0.740    2.726   33.384   26.834 
  664  110.178   -0.740    2.726   33.384   26.834 
  665  110.683   -0.740    2.726   33.385   26.835 
  666  111.188   -0.734    2.727   33.385   26.835 
  667  111.683   -0.730    2.727   33.390   26.838 
  668  112.177   -0.730    2.727   33.390   26.838 
  669  112.661   -0.730    2.729   33.409   26.854 
  670  113.134   -0.719    2.730   33.416   26.858 
  671  113.596   -0.701    2.733   33.416   26.858 
  672  114.080   -0.681    2.734   33.416   26.858 
  673  114.553   -0.675    2.734   33.416   26.858 
  674  115.026   -0.675    2.734   33.416   26.858 
  675  115.531   -0.675    2.734   33.416   26.858 
  676  116.026   -0.675    2.732   33.416   26.857 
  677  116.510   -0.711    2.730   33.416   26.857 
  678  117.004   -0.735    2.729   33.414   26.858 
  679  117.488   -0.747    2.728   33.409   26.858 
  680  117.940   -0.763    2.727   33.414   26.859 
  681  118.402   -0.789    2.724   33.419   26.864 
  682  118.853   -0.822    2.721   33.419   26.866 
  683  119.283   -0.852    2.721   33.428   26.874 
  684  119.746   -0.858    2.720   33.430   26.876 
  685  120.219   -0.865    2.719   33.431   26.877 
  686  120.703   -0.882    2.718   33.433   26.879 
  687  121.186   -0.904    2.718   33.450   26.894 
  688  121.659   -0.905    2.718   33.450   26.894 
  689  122.143   -0.905    2.718   33.450   26.894 
  690  122.605   -0.905    2.718   33.455   26.898 
  691  123.078   -0.904    2.719   33.466   26.907 
  692  123.573   -0.893    2.722   33.489   26.925 
  693  124.078   -0.862    2.725   33.495   26.928 
  694  124.583   -0.833    2.727   33.499   26.930 
  695  125.110   -0.815    2.729   33.499   26.930 
  696  125.637   -0.803    2.730   33.499   26.930 
  697  126.239   -0.789    2.732   33.504   26.933 
  698  126.852   -0.776    2.733   33.505   26.934 
  699  127.475   -0.763    2.734   33.510   26.937 
  700  128.067   -0.747    2.736   33.511   26.937 
  701  128.647   -0.740    2.736   33.513   26.939 
  702  129.206   -0.740    2.737   33.519   26.943 
  703  129.819   -0.740    2.737   33.519   26.943 
  704  130.507   -0.740    2.737   33.519   26.943 
  705  131.217   -0.740    2.737   33.519   26.943 
  706  131.926   -0.743    2.737   33.519   26.943 
  707  132.646   -0.748    2.736   33.519   26.944 
  708  133.356   -0.767    2.734   33.520   26.945 
  709  134.033   -0.805    2.732   33.523   26.949 
  710  134.678   -0.814    2.732   33.532   26.957 
  711  135.270   -0.814    2.732   33.533   26.957 
  712  135.839   -0.814    2.732   33.533   26.958 
  713  136.366   -0.814    2.739   33.579   26.995 
  714  136.818   -0.759    2.741   33.591   27.002 
  715  137.237   -0.742    2.741   33.593   27.003 
  716  137.731   -0.735    2.743   33.620   27.025 
  717  138.247   -0.694    2.753   33.641   27.034 
  718  138.785   -0.586    2.764   33.641   27.036 
  719  139.312   -0.496    2.767   33.643   27.040 
  720  139.806   -0.486    2.767   33.675   27.059 
  721  140.258   -0.485    2.767   33.675   27.059 
  722  140.709   -0.480    2.770   33.675   27.059 
  723  141.139   -0.435    2.775   33.679   27.060 
  724  141.591   -0.403    2.777   33.692   27.064 
  725  142.021   -0.379    2.781   33.692   27.064 
  726  142.461   -0.338    2.784   33.692   27.064 
  727  142.891   -0.317    2.785   33.690   27.064 
  728  143.332   -0.303    2.786   33.690   27.063 
  729  143.773   -0.292    2.787   33.690   27.063 
  730  144.213   -0.286    2.787   33.690   27.063 
  731  144.643   -0.285    2.788   33.690   27.063 
  732  145.073   -0.276    2.789   33.696   27.067 
  733  145.525   -0.264    2.791   33.704   27.073 
  734  145.976   -0.242    2.794   33.714   27.077 
  735  146.417   -0.212    2.797   33.714   27.078 
  736  146.879   -0.190    2.798   33.714   27.078 
  737  147.299   -0.179    2.799   33.715   27.078 
  738  147.739   -0.173    2.799   33.715   27.078 
  739  148.180   -0.170    2.799   33.715   27.078 
  740  148.631   -0.167    2.800   33.716   27.078 
  741  149.115   -0.158    2.801   33.721   27.082 
  742  149.567   -0.147    2.802   33.728   27.086 
  743  150.029   -0.142    2.803   33.732   27.089 
  744  150.480   -0.123    2.808   33.770   27.115 
  745  150.953   -0.063    2.816   33.770   27.115 
  746  151.415   -0.007    2.818   33.772   27.117 
  747  151.878    0.010    2.819   33.772   27.117 
  748  152.308    0.019    2.819   33.777   27.117 
  749  152.759    0.026    2.820   33.777   27.118 
  750  153.221    0.035    2.822   33.783   27.122 
  751  153.684    0.054    2.827   33.830   27.159 
  752  154.146    0.123    2.836   33.868   27.186 
  753  154.619    0.209    2.847   33.882   27.189 
  754  155.102    0.305    2.853   33.883   27.192 
  755  155.565    0.359    2.857   33.894   27.193 
  756  156.059    0.394    2.860   33.896   27.193 
  757  156.532    0.426    2.863   33.896   27.193 
  758  157.027    0.461    2.867   33.900   27.194 
  759  157.500    0.497    2.870   33.900   27.194 
  760  157.983    0.519    2.872   33.904   27.194 
  761  158.456    0.537    2.873   33.906   27.194 
  762  158.972    0.552    2.877   33.934   27.212 
  763  159.445    0.598    2.882   33.934   27.213 
  764  159.961    0.638    2.884   33.936   27.215 
  765  160.456    0.658    2.886   33.949   27.222 
  766  160.961    0.685    2.893   33.989   27.244 
  767  161.466    0.769    2.901   33.989   27.244 
  768  161.982    0.822    2.905   33.990   27.244 
  769  162.509    0.860    2.907   33.995   27.246 
  770  162.992    0.885    2.910   33.995   27.246 
  771  163.465    0.907    2.911   33.995   27.246 
  772  163.938    0.929    2.914   34.001   27.246 
  773  164.433    0.953    2.916   34.003   27.247 
  774  164.959    0.969    2.918   34.004   27.247 
  775  165.497    0.985    2.921   34.022   27.260 
  776  166.056    1.023    2.926   34.031   27.265 
  777  166.582    1.071    2.929   34.038   27.265 
  778  167.098    1.096    2.931   34.039   27.265 
  779  167.571    1.115    2.933   34.039   27.266 
  780  168.098    1.125    2.934   34.039   27.267 
  781  168.592    1.141    2.936   34.046   27.269 
  782  169.108    1.173    2.944   34.080   27.294 
  783  169.635    1.252    2.951   34.092   27.295 
  784  170.162    1.308    2.954   34.092   27.295 
  785  170.699    1.329    2.955   34.096   27.295 
  786  171.204    1.342    2.957   34.096   27.295 
  787  171.731    1.363    2.959   34.096   27.294 
  788  172.236    1.380    2.960   34.096   27.293 
  789  172.742    1.398    2.963   34.096   27.292 
  790  173.247    1.419    2.964   34.097   27.292 
  791  173.763    1.427    2.964   34.097   27.292 
  792  174.279    1.430    2.965   34.100   27.292 
  793  174.816    1.435    2.966   34.100   27.292 
  794  175.300    1.443    2.966   34.102   27.294 
  795  175.794    1.445    2.967   34.103   27.294 
  796  176.299    1.456    2.968   34.106   27.296 
  797  176.815    1.468    2.969   34.110   27.298 
  798  177.320    1.477    2.971   34.123   27.308 
  799  177.836    1.501    2.974   34.139   27.318 
  800  178.352    1.536    2.979   34.144   27.319 
  801  178.857    1.579    2.983   34.144   27.319 
  802  179.352    1.615    2.986   34.150   27.320 
  803  179.846    1.645    2.987   34.157   27.321 
  804  180.330    1.649    2.988   34.157   27.322 
  805  180.814    1.657    2.989   34.157   27.323 
  806  181.319    1.666    2.990   34.157   27.323 
  807  181.824    1.681    2.992   34.162   27.324 
  808  182.329    1.694    2.993   34.162   27.324 
  809  182.834    1.698    2.993   34.164   27.325 
  810  183.329    1.699    2.993   34.165   27.325 
  811  183.791    1.699    2.994   34.165   27.325 
  812  184.285    1.699    2.994   34.165   27.325 
  813  184.780    1.701    2.994   34.165   27.326 
  814  185.296    1.703    2.994   34.165   27.326 
  815  185.779    1.703    2.994   34.165   27.326 
  816  186.285    1.703    2.994   34.166   27.326 
  817  186.757    1.704    2.994   34.166   27.326 
  818  187.241    1.706    2.995   34.168   27.327 
  819  187.736    1.709    2.995   34.169   27.328 
  820  188.208    1.710    2.995   34.169   27.328 
  821  188.681    1.711    2.995   34.169   27.328 
  822  189.165    1.712    2.995   34.169   27.328 
  823  189.681    1.713    2.996   34.170   27.329 
  824  190.175    1.715    2.996   34.171   27.329 
  825  190.659    1.717    2.996   34.172   27.329 
  826  191.143    1.722    2.997   34.172   27.329 
  827  191.605    1.726    2.997   34.172   27.329 
  828  192.088    1.726    2.997   34.172   27.329 
  829  192.604    1.726    2.997   34.172   27.329 
  830  193.077    1.726    2.997   34.172   27.329 
  831  193.550    1.727    2.997   34.172   27.329 
  832  194.012    1.728    2.997   34.172   27.329 
  833  194.485    1.729    2.997   34.173   27.330 
  834  194.980    1.730    2.998   34.174   27.330 
  835  195.474    1.732    2.998   34.174   27.330 
  836  195.958    1.733    2.998   34.174   27.330 
  837  196.409    1.734    2.998   34.175   27.331 
  838  196.882    1.735    2.998   34.175   27.331 
  839  197.344    1.735    2.998   34.175   27.331 
  840  197.817    1.738    2.998   34.177   27.332 
  841  198.311    1.740    2.999   34.177   27.333 
  842  198.784    1.741    2.999   34.177   27.333 
  843  199.246    1.742    2.999   34.178   27.333 
  844  199.719    1.745    2.999   34.178   27.333 
  845  200.181    1.745    2.999   34.178   27.333 
  846  200.633    1.745    3.000   34.178   27.333 
  847  201.095    1.748    3.000   34.178   27.333 
  848  201.546    1.748    3.000   34.178   27.333 
  849  202.030    1.749    3.000   34.179   27.333 
  850  202.524    1.750    3.000   34.179   27.333 
  851  202.965    1.750    3.000   34.179   27.333 
  852  203.406    1.752    3.000   34.180   27.333 
  853  203.825    1.753    3.000   34.180   27.333 
  854  204.276    1.754    3.000   34.180   27.333 
  855  204.760    1.754    3.001   34.180   27.333 
  856  205.222    1.755    3.001   34.180   27.333 
  857  205.684    1.755    3.001   34.180   27.333 
  858  206.125    1.755    3.001   34.180   27.334 
  859  206.555    1.757    3.001   34.181   27.334 
  860  206.995    1.758    3.001   34.181   27.334 
  861  207.425    1.760    3.001   34.181   27.334 
  862  207.866    1.764    3.002   34.183   27.335 
  863  208.317    1.768    3.002   34.183   27.335 
  864  208.747    1.765    3.002   34.183   27.335 
  865  209.209    1.765    3.002   34.183   27.335 
  866  209.660    1.768    3.002   34.183   27.335 
  867  210.101    1.768    3.002   34.183   27.335 
  868  210.520    1.768    3.002   34.186   27.337 
  869  210.928    1.771    3.003   34.186   27.337 
  870  211.348    1.778    3.003   34.187   27.337 
  871  211.788    1.780    3.004   34.187   27.337 
  872  212.218    1.781    3.004   34.187   27.337 
  873  212.680    1.781    3.004   34.187   27.337 
  874  213.099    1.784    3.004   34.187   27.337 
  875  213.518    1.785    3.004   34.190   27.339 
  876  213.927    1.787    3.006   34.191   27.339 
  877  214.346    1.809    3.007   34.191   27.339 
  878  214.765    1.809    3.007   34.192   27.340 
  879  215.205    1.809    3.007   34.197   27.343 
  880  215.635    1.809    3.008   34.197   27.343 
  881  216.044    1.814    3.008   34.197   27.343 
  882  216.463    1.814    3.008   34.198   27.343 
  883  216.860    1.814    3.008   34.203   27.346 
  884  217.269    1.820    3.009   34.201   27.347 
  885  217.688    1.831    3.010   34.205   27.348 
  886  218.096    1.842    3.011   34.206   27.348 
  887  218.526    1.850    3.011   34.207   27.348 
  888  218.924    1.852    3.012   34.210   27.350 
  889  219.343    1.853    3.013   34.210   27.350 
  890  219.740    1.871    3.014   34.218   27.353 
  891  220.149    1.871    3.014   34.219   27.353 
  892  220.535    1.895    3.018   34.219   27.353 
  893  220.911    1.908    3.018   34.219   27.353 
  894  221.320    1.908    3.018   34.219   27.353 
  895  221.717    1.908    3.018   34.219   27.353 
  896  222.126    1.912    3.018   34.219   27.353 
  897  222.534    1.912    3.018   34.219   27.353 
  898  222.942    1.912    3.018   34.220   27.354 
  899  223.329    1.912    3.018   34.221   27.354 
  900  223.695    1.916    3.019   34.221   27.355 
  901  224.060    1.922    3.020   34.226   27.357 
  902  224.447    1.931    3.020   34.226   27.358 
  903  224.844    1.937    3.021   34.231   27.359 
  904  225.263    1.944    3.022   34.231   27.359 
  905  225.661    1.949    3.022   34.231   27.360 
  906  226.005    1.952    3.023   34.231   27.360 
  907  226.316    1.961    3.023   34.236   27.363 
  908  226.660    1.964    3.025   34.244   27.369 
  909  227.025    1.980    3.027   34.257   27.371 
  910  227.369    2.004    3.032   34.257   27.371 
  911  227.713    2.064    3.034   34.257   27.371 
  912  228.035    2.065    3.035   34.257   27.371 
  913  228.358    2.076    3.035   34.257   27.371 
  914  228.691    2.076    3.035   34.257   27.371 
  915  229.013    2.076    3.035   34.258   27.371 
  916  229.325    2.079    3.036   34.258   27.371 
  917  229.593    2.079    3.036   34.258   27.371 
  918  229.830    2.079    3.037   34.267   27.379 
  919  230.120    2.089    3.038   34.269   27.379 
  920  230.453    2.099    3.038   34.270   27.379 
  921  230.754    2.112    3.042   34.285   27.389 
  922  231.055    2.152    3.049   34.288   27.390 
  923  231.345    2.200    3.049   34.294   27.391 
  924  231.613    2.203    3.049   34.314   27.404 
  925  231.871    2.209    3.052   34.316   27.406 
  926  232.108    2.241    3.055   34.316   27.407 
  927  232.344    2.273    3.061   34.334   27.410 
  928  232.591    2.328    3.068   34.335   27.410 
  929  232.860    2.386    3.069   34.337   27.410 
  930  233.128    2.389    3.069   34.345   27.410 
  931  233.354    2.389    3.069   34.337   27.410 
  932  233.601    2.398    3.071   34.337   27.410 
  933  233.816    2.400    3.071   34.337   27.413 
  934  234.031    2.410    3.071   34.345   27.413 
  935  234.224    2.410    3.071   34.346   27.414 
  936  234.407    2.410    3.072   34.347   27.414 
  937  234.590    2.426    3.076   34.350   27.415 
  938  234.805    2.462    3.077   34.351   27.415 
  939  235.019    2.467    3.077   34.353   27.415 
  940  235.202    2.472    3.079   34.359   27.416 
  941  235.352    2.485    3.079   34.353   27.418 
  942  235.503    2.486    3.080   34.359   27.419 
  943  235.664    2.489    3.080   34.360   27.419 
  944  235.825    2.498    3.080   34.360   27.419 
  945  235.986    2.500    3.081   34.362   27.419 
  946  236.148    2.504    3.083   34.362   27.419 
  947  236.287    2.520    3.083   34.364   27.419 
  948  236.395    2.523    3.083   34.364   27.419 
  949  236.491    2.523    3.083   34.364   27.419 
  950  236.620    2.524    3.083   34.363   27.418 
  951  236.749    2.524    3.083   34.363   27.418 
  952  236.846    2.524    3.083   34.363   27.418 
  953  236.953    2.526    3.083   34.363   27.418 
  954  237.050    2.527    3.083   34.363   27.418 
  955  237.136    2.527    3.083   34.363   27.418 
  956  237.201    2.528    3.085   34.368   27.421 
  957  237.265    2.540    3.085   34.368   27.421 
  958  237.351    2.540    3.085   34.368   27.421 
  959  237.426    2.540    3.085   34.368   27.421 
  960  237.480    2.540    3.085   34.368   27.421 
  961  237.534    2.540    3.085   34.368   27.421 
  962  237.577    2.542    3.085   34.368   27.421 
  963  237.641    2.542    3.085   34.368   27.421 
  964  237.684    2.542    3.085   34.368   27.421 
  965  237.727    2.545    3.086   34.370   27.422 
  966  237.792    2.545    3.086   34.370   27.422 
  967  237.845    2.545    3.086   34.370   27.422 
  968  237.899    2.545    3.086   34.370   27.422 
  969  237.910    2.541    3.086   34.374   27.426 
  970  237.921    2.539    3.086   34.375   27.427 
  971  237.942    2.539    3.086   34.375   27.427 
  972  237.985    2.539    3.086   34.375   27.427 
  973  238.039    2.539    3.086   34.375   27.427 
  974  238.071    2.547    3.086   34.375   27.426 
  975  238.082    2.550    3.086   34.375   27.426 
  976  238.103    2.553    3.087   34.369   27.425 
  977  238.103    2.563    3.087   34.369   27.425 
  978  238.146    2.563    3.087   34.375   27.425 
  979  238.189    2.563    3.087   34.375   27.424 
  980  238.221    2.563    3.088   34.375   27.425 
  981  238.232    2.570    3.088   34.375   27.425 
  982  238.243    2.570    3.088   34.375   27.425 
  983  238.243    2.570    3.088   34.383   27.427 
  984  238.254    2.580    3.092   34.384   27.427 
  985  238.297    2.610    3.093   34.384   27.427 
  986  238.340    2.614    3.093   34.384   27.427 
  987  238.372    2.614    3.093   34.384   27.427 
  988  238.372    2.614    3.093   34.384   27.427 
  989  238.372    2.614    3.093   34.384   27.427 
  990  238.372    2.614    3.093   34.383   27.427 
  991  238.404    2.611    3.092   34.383   27.427 
  992  238.447    2.609    3.092   34.382   27.426 
  993  238.447    2.608    3.092   34.381   27.425 
  994  238.447    2.608    3.092   34.381   27.425 
  995  238.447    2.611    3.092   34.381   27.425 
  996  238.297    2.608    3.092   34.381   27.425 
  997  238.297    2.606    3.092   34.381   27.425 
  998  238.297    2.606    3.092   34.380   27.425 
  999  238.297    2.606    3.092   34.380   27.425 
 1000  238.308    2.605    3.092   34.380   27.425 
 1001  238.318    2.605    3.091   34.379   27.425 
 1002  238.329    2.604    3.091   34.379   27.425 
 1003  238.361    2.601    3.091   34.380   27.425 
 1004  238.361    2.598    3.091   34.381   27.426 
 1005  238.361    2.591    3.091   34.383   27.429 
 1006  238.361    2.591    3.091   34.383   27.429 
 1007  238.372    2.591    3.091   34.383   27.429 
 1008  238.372    2.591    3.091   34.383   27.429 
 1009  238.372    2.591    3.091   34.383   27.429 
 1010  238.372    2.596    3.092   34.386   27.430 
 1011  238.372    2.601    3.092   34.387   27.430 
 1012  238.372    2.602    3.092   34.387   27.430 
 1013  238.372    2.602    3.092   34.386   27.430 
 1014  238.361    2.602    3.092   34.384   27.429 
 1015  238.351    2.605    3.092   34.384   27.429 
 1016  238.351    2.605    3.092   34.383   27.427 
 1017  238.340    2.602    3.091   34.380   27.426 
 1018  238.340    2.602    3.091   34.380   27.426 
 1019  238.329    2.593    3.090   34.378   27.425 
 1020  238.329    2.586    3.090   34.378   27.425 
 1021  238.308    2.584    3.089   34.378   27.425 
 1022  238.308    2.581    3.089   34.377   27.425 
 1023  238.308    2.578    3.089   34.377   27.425 
 1024  238.308    2.578    3.089   34.377   27.425 
 1025  238.286    2.580    3.089   34.378   27.425 
 1026  238.265    2.578    3.089   34.377   27.425 
 1027  238.254    2.578    3.089   34.377   27.425 
 1028  238.254    2.578    3.089   34.377   27.425 
 1029  238.254    2.578    3.089   34.376   27.425 
 1030  238.243    2.577    3.089   34.377   27.425 
 1031  238.243    2.577    3.089   34.377   27.424 
 1032  238.243    2.577    3.088   34.376   27.424 
 1033  238.233    2.577    3.089   34.374   27.423 
 1034  238.200    2.577    3.088   34.371   27.423 
 1035  238.179    2.570    3.088   34.371   27.423 
 1036  238.157    2.569    3.088   34.374   27.423 
 1037  238.147    2.569    3.088   34.371   27.423 
 1038  238.136    2.570    3.088   34.374   27.423 
 1039  238.136    2.575    3.089   34.378   27.426 
 1040  238.125    2.577    3.088   34.382   27.426 
 1041  238.125    2.576    3.089   34.382   27.426 
 1042  238.114    2.577    3.089   34.382   27.426 
 1043  238.114    2.577    3.089   34.376   27.425 
 1044  238.104    2.577    3.089   34.376   27.425 
 1045  238.104    2.576    3.088   34.373   27.422 
 1046  238.104    2.575    3.088   34.372   27.422 
 1047  238.104    2.573    3.088   34.371   27.421 
 1048  238.104    2.568    3.088   34.371   27.421 
 1049  238.114    2.567    3.088   34.371   27.421 
 1050  238.125    2.565    3.087   34.371   27.421 
 1051  238.125    2.560    3.087   34.371   27.422 
 1052  238.125    2.560    3.087   34.371   27.422 
 1053  238.136    2.560    3.087   34.371   27.422 
 1054  238.136    2.560    3.087   34.375   27.425 
 1055  238.136    2.558    3.086   34.375   27.425 
 1056  238.147    2.556    3.087   34.375   27.425 
 1057  238.157    2.558    3.087   34.375   27.425 
 1058  238.157    2.558    3.087   34.372   27.423 
 1059  238.157    2.558    3.087   34.372   27.423 
 1060  238.157    2.555    3.086   34.368   27.421 
 1061  238.168    2.555    3.086   34.368   27.421 
 1062  238.179    2.548    3.086   34.368   27.421 
 1063  238.190    2.542    3.084   34.368   27.421 
 1064  238.200    2.531    3.084   34.368   27.422 
 1065  238.211    2.531    3.084   34.368   27.422 
 1066  238.211    2.531    3.086   34.371   27.424 
 1067  238.211    2.542    3.086   34.371   27.424 
 1068  238.222    2.543    3.086   34.371   27.424 
 1069  238.222    2.543    3.086   34.371   27.424 
 1070  238.233    2.543    3.086   34.371   27.424 
 1071  238.233    2.543    3.084   34.366   27.419 
 1072  238.243    2.538    3.084   34.363   27.417 
 1073  238.243    2.538    3.084   34.363   27.417 
 1074  238.243    2.534    3.084   34.362   27.417 
 1075  238.243    2.534    3.084   34.362   27.417 
 1076  238.243    2.532    3.084   34.360   27.417 
 1077  238.243    2.532    3.083   34.360   27.417 
 1078  238.243    2.523    3.083   34.360   27.417 
 1079  238.243    2.522    3.083   34.360   27.417 
 1080  238.243    2.517    3.083   34.360   27.417 
 1081  238.265    2.517    3.083   34.363   27.419 
 1082  238.265    2.522    3.083   34.365   27.420 
 1083  238.265    2.523    3.083   34.365   27.421 
 1084  238.265    2.523    3.084   34.369   27.422 
 1085  238.254    2.533    3.085   34.369   27.422 
 1086  238.254    2.533    3.085   34.369   27.422 
 1087  238.233    2.535    3.085   34.369   27.422 
 1088  238.233    2.535    3.085   34.369   27.422 
 1089  238.233    2.540    3.085   34.369   27.422 
 1090  238.222    2.540    3.085   34.369   27.422 
 1091  238.222    2.540    3.085   34.369   27.422 
 1092  238.222    2.540    3.085   34.368   27.421 
 1093  238.222    2.540    3.085   34.368   27.421 
 1094  238.222    2.540    3.085   34.368   27.421 
 1095  238.222    2.540    3.085   34.368   27.421 
 1096  238.211    2.539    3.085   34.368   27.421 
 1097  238.222    2.538    3.084   34.361   27.416 
 1098  238.222    2.533    3.084   34.358   27.415 
 1099  238.233    2.527    3.083   34.358   27.415 
 1100  238.233    2.519    3.082   34.358   27.415 
 1101  238.265    2.519    3.082   34.358   27.415 
 1102  238.276    2.519    3.082   34.358   27.415 
 1103  238.297    2.519    3.082   34.358   27.415 
 1104  238.329    2.519    3.083   34.368   27.423 
 1105  238.340    2.519    3.083   34.368   27.423 
 1106  238.351    2.519    3.083   34.368   27.423 
 1107  238.372    2.525    3.084   34.370   27.423 
 1108  238.383    2.532    3.084   34.370   27.423 
 1109  238.394    2.532    3.084   34.369   27.423 
 1110  238.394    2.532    3.086   34.369   27.423 
 1111  238.394    2.547    3.086   34.369   27.422 
 1112  238.394    2.549    3.086   34.369   27.421 
 1113  238.383    2.549    3.086   34.369   27.421 
 1114  238.383    2.549    3.086   34.369   27.421 
 1115  238.372    2.549    3.086   34.368   27.420 
 1116  238.361    2.545    3.085   34.364   27.418 
 1117  238.361    2.539    3.085   34.364   27.418 
 1118  238.361    2.537    3.084   34.364   27.418 
 1119  238.361    2.536    3.084   34.364   27.418 
 1120  238.361    2.530    3.084   34.364   27.419 
 1121  238.372    2.526    3.084   34.365   27.420 
 1122  238.383    2.530    3.084   34.365   27.420 
 1123  238.404    2.528    3.083   34.365   27.420 
 1124  238.404    2.524    3.083   34.365   27.420 
 1125  238.404    2.524    3.084   34.365   27.420 
 1126  238.437    2.528    3.084   34.364   27.419 
 1127  238.469    2.529    3.084   34.364   27.419 
 1128  238.490    2.529    3.084   34.364   27.419 
 1129  238.490    2.529    3.084   34.361   27.417 
 1130  238.490    2.529    3.084   34.361   27.417 
 1131  238.490    2.529    3.083   34.361   27.417 
 1132  238.490    2.524    3.083   34.361   27.417 
 1133  238.490    2.517    3.083   34.358   27.417 
 1134  238.490    2.517    3.083   34.358   27.417 
 1135  238.490    2.517    3.082   34.361   27.418 
 1136  238.512    2.514    3.082   34.363   27.418 
 1137  238.523    2.514    3.082   34.361   27.418 
 1138  238.533    2.514    3.082   34.361   27.418 
 1139  238.544    2.515    3.083   34.361   27.418 
 1140  238.565    2.517    3.083   34.361   27.418 
 1141  238.565    2.517    3.083   34.363   27.419 
 1142  238.576    2.520    3.083   34.363   27.419 
 1143  238.576    2.520    3.083   34.364   27.420 
 1144  238.587    2.521    3.083   34.365   27.420 
 1145  238.598    2.528    3.084   34.365   27.420 
 1146  238.608    2.528    3.084   34.367   27.421 
 1147  238.619    2.531    3.084   34.367   27.421 
 1148  238.619    2.531    3.084   34.368   27.421 
 1149  238.630    2.532    3.085   34.368   27.421 
 1150  238.630    2.537    3.085   34.365   27.419 
 1151  238.630    2.537    3.085   34.365   27.419 
 1152  238.630    2.537    3.084   34.365   27.419 
 1153  238.630    2.532    3.083   34.364   27.419 
 1154  238.651    2.523    3.083   34.363   27.418 
 1155  238.651    2.524    3.083   34.360   27.416 
 1156  238.651    2.523    3.083   34.360   27.416 
 1157  238.651    2.522    3.083   34.360   27.416 
 1158  238.662    2.521    3.083   34.360   27.416 
 1159  238.684    2.521    3.083   34.360   27.416 
 1160  238.684    2.521    3.083   34.358   27.415 
 1161  238.684    2.524    3.083   34.358   27.414 
 1162  238.684    2.523    3.083   34.358   27.414 
 1163  238.694    2.523    3.083   34.358   27.414 
 1164  238.694    2.523    3.083   34.358   27.414 
 1165  238.694    2.523    3.083   34.359   27.415 
 1166  238.727    2.523    3.083   34.359   27.415 
 1167  238.770    2.523    3.083   34.359   27.415 
 1168  238.770    2.523    3.083   34.359   27.415 
 1169  238.770    2.523    3.084   34.366   27.421 
 1170  238.780    2.533    3.084   34.367   27.421 
 1171  238.791    2.535    3.085   34.368   27.422 
 1172  238.791    2.538    3.085   34.369   27.422 
 1173  238.812    2.543    3.085   34.369   27.422 
 1174  238.812    2.545    3.086   34.369   27.422 
 1175  238.823    2.545    3.086   34.369   27.422 
 1176  238.834    2.545    3.086   34.369   27.422 
 1177  238.834    2.545    3.085   34.369   27.422 
 1178  238.866    2.545    3.086   34.369   27.422 
 1179  238.877    2.545    3.086   34.368   27.421 
 1180  238.888    2.545    3.086   34.368   27.421 
 1181  238.898    2.545    3.085   34.368   27.421 
 1182  238.898    2.545    3.085   34.368   27.421 
 1183  238.931    2.545    3.085   34.367   27.420 
 1184  238.984    2.545    3.085   34.367   27.420 
 1185  239.017    2.544    3.085   34.367   27.420 
 1186  239.017    2.544    3.085   34.367   27.420 
 1187  239.027    2.544    3.085   34.367   27.420 
 1188  239.060    2.544    3.085   34.368   27.421 
 1189  239.113    2.545    3.085   34.368   27.421 
 1190  239.167    2.545    3.086   34.368   27.421 
 1191  239.221    2.550    3.086   34.369   27.421 
 1192  239.242    2.550    3.087   34.369   27.421 
 1193  239.242    2.552    3.087   34.372   27.421 
 1194  239.253    2.561    3.087   34.371   27.421 
 1195  239.264    2.561    3.087   34.371   27.421 
 1196  239.296    2.561    3.087   34.371   27.421 
 1197  239.350    2.562    3.087   34.371   27.421 
 1198  239.414    2.562    3.087   34.371   27.421 
 1199  239.435    2.562    3.087   34.371   27.421 
 1200  239.446    2.562    3.087   34.371   27.421 
 1201  239.446    2.562    3.087   34.371   27.421 
 1202  239.468    2.560    3.087   34.371   27.421 
 1203  239.511    2.560    3.087   34.370   27.421 
 1204  239.511    2.557    3.087   34.369   27.420 
 1205  239.511    2.557    3.086   34.367   27.420 
 1206  239.521    2.549    3.086   34.367   27.420 
 1207  239.532    2.547    3.086   34.367   27.420 
 1208  239.532    2.547    3.086   34.367   27.420 
 1209  239.554    2.547    3.086   34.367   27.420 
 1210  239.586    2.549    3.086   34.368   27.420 
 1211  239.607    2.551    3.087   34.372   27.423 
 1212  239.618    2.555    3.087   34.372   27.423 
 1213  239.618    2.555    3.087   34.372   27.423 
 1214  239.618    2.555    3.087   34.372   27.423 
 1215  239.640    2.556    3.087   34.371   27.422 
 1216  239.682    2.556    3.087   34.371   27.422 
 1217  239.682    2.556    3.087   34.371   27.422 
 1218  239.682    2.554    3.086   34.371   27.422 
 1219  239.693    2.553    3.086   34.371   27.422 
 1220  239.704    2.553    3.087   34.372   27.423 
 1221  239.747    2.556    3.087   34.374   27.424 
 1222  239.758    2.559    3.088   34.374   27.424 
 1223  239.768    2.566    3.088   34.375   27.424 
 1224  239.768    2.568    3.088   34.375   27.424 
 1225  239.779    2.569    3.088   34.374   27.424 
 1226  239.779    2.569    3.088   34.374   27.424 
 1227  239.790    2.570    3.088   34.374   27.424 
 1228  239.822    2.569    3.088   34.375   27.424 
 1229  239.833    2.569    3.088   34.375   27.424 
 1230  239.844    2.570    3.088   34.375   27.424 
 1231  239.844    2.570    3.089   34.383   27.428 
 1232  239.844    2.583    3.090   34.383   27.428 
 1233  239.844    2.595    3.092   34.383   27.428 
 1234  239.844    2.604    3.092   34.383   27.428 
 1235  239.844    2.604    3.092   34.383   27.428 
 1236  239.833    2.604    3.092   34.383   27.428 
 1237  239.833    2.608    3.092   34.383   27.428 
 1238  239.822    2.610    3.093   34.385   27.429 
 1239  239.822    2.611    3.093   34.388   27.431 
 1240  239.822    2.616    3.093   34.389   27.431 
 1241  239.801    2.619    3.094   34.390   27.431 
 1242  239.801    2.627    3.095   34.390   27.431 
 1243  239.801    2.629    3.095   34.390   27.431 
 1244  239.790    2.638    3.095   34.391   27.431 
 1245  239.768    2.639    3.095   34.391   27.431 
 1246  239.758    2.639    3.095   34.390   27.430 
 1247  239.747    2.641    3.096   34.389   27.430 
 1248  239.747    2.641    3.096   34.389   27.430 
 1249  239.747    2.641    3.095   34.389   27.430 
 1250  239.747    2.641    3.095   34.390   27.430 
 1251  239.758    2.639    3.095   34.390   27.430 
 1252  239.758    2.633    3.095   34.390   27.431 
 1253  239.768    2.641    3.096   34.394   27.433 
 1254  239.768    2.642    3.096   34.394   27.433 
 1255  239.768    2.642    3.096   34.394   27.433 
 1256  239.768    2.647    3.097   34.394   27.433 
 1257  239.758    2.649    3.097   34.393   27.432 
 1258  239.758    2.649    3.097   34.393   27.432 
 1259  239.747    2.649    3.097   34.393   27.432 
 1260  239.747    2.649    3.097   34.393   27.432 
 1261  239.747    2.649    3.097   34.393   27.432 
 1262  239.725    2.649    3.097   34.393   27.432 
 1263  239.725    2.649    3.097   34.393   27.432 
 1264  239.725    2.651    3.097   34.393   27.432 
 1265  239.725    2.651    3.097   34.393   27.432 
 1266  239.682    2.651    3.097   34.393   27.432 
 1267  239.661    2.651    3.097   34.392   27.431 
 1268  239.661    2.646    3.096   34.392   27.431 
 1269  239.650    2.646    3.096   34.392   27.431 
 1270  239.650    2.644    3.096   34.392   27.431 
 1271  239.639    2.644    3.096   34.392   27.431 
 1272  239.618    2.644    3.096   34.392   27.431 
 1273  239.564    2.644    3.096   34.392   27.431 
 1274  239.553    2.644    3.096   34.392   27.431 
 1275  239.553    2.644    3.096   34.392   27.431 
 1276  239.543    2.642    3.096   34.390   27.430 
 1277  239.532    2.642    3.096   34.390   27.430 
 1278  239.500    2.642    3.096   34.390   27.430 
 1279  239.478    2.642    3.096   34.390   27.430 
 1280  239.468    2.642    3.096   34.390   27.430 
 1281  239.468    2.637    3.096   34.390   27.430 
 1282  239.468    2.637    3.096   34.389   27.430 
 1283  239.457    2.637    3.095   34.389   27.430 
 1284  239.446    2.635    3.095   34.389   27.430 
 1285  239.446    2.634    3.095   34.387   27.428 
 1286  239.446    2.634    3.095   34.387   27.428 
 1287  239.446    2.632    3.095   34.387   27.428 
 1288  239.414    2.632    3.095   34.387   27.428 
 1289  239.414    2.629    3.094   34.386   27.428 
 1290  239.414    2.625    3.093   34.385   27.427 
 1291  239.414    2.618    3.093   34.380   27.427 
 1292  239.435    2.609    3.092   34.380   27.427 
 1293  239.446    2.599    3.091   34.380   27.427 
 1294  239.457    2.589    3.090   34.380   27.427 
 1295  239.500    2.589    3.090   34.380   27.427 
 1296  239.500    2.589    3.090   34.380   27.427 
 1297  239.510    2.598    3.092   34.384   27.429 
 1298  239.510    2.599    3.092   34.385   27.429 
 1299  239.510    2.607    3.092   34.385   27.429 
 1300  239.510    2.609    3.092   34.385   27.429 
 1301  239.532    2.609    3.092   34.384   27.428 
 1302  239.532    2.609    3.092   34.382   27.427 
 1303  239.543    2.609    3.092   34.382   27.426 
 1304  239.543    2.607    3.092   34.380   27.425 
 1305  239.543    2.604    3.091   34.380   27.425 
 1306  239.553    2.598    3.091   34.378   27.425 
 1307  239.586    2.593    3.091   34.378   27.425 
 1308  239.586    2.591    3.090   34.378   27.424 
 1309  239.586    2.591    3.090   34.380   27.424 
 1310  239.586    2.591    3.091   34.380   27.424 
 1311  239.564    2.591    3.091   34.375   27.422 
 1312  239.564    2.591    3.091   34.375   27.422 
 1313  239.564    2.591    3.090   34.374   27.422 
 1314  239.564    2.587    3.089   34.372   27.422 
 1315  239.575    2.572    3.088   34.371   27.422 
 1316  239.575    2.566    3.088   34.371   27.422 
 1317  239.586    2.565    3.087   34.371   27.422 
 1318  239.586    2.565    3.087   34.372   27.423 
 1319  239.607    2.565    3.088   34.374   27.424 
 1320  239.618    2.566    3.088   34.376   27.425 
 1321  239.629    2.571    3.088   34.376   27.425 
 1322  239.639    2.571    3.088   34.378   27.425 
 1323  239.650    2.571    3.089   34.378   27.425 
 1324  239.661    2.577    3.090   34.376   27.425 
 1325  239.661    2.581    3.090   34.378   27.425 
 1326  239.661    2.581    3.089   34.378   27.425 
 1327  239.682    2.571    3.088   34.377   27.425 
 1328  239.736    2.570    3.089   34.376   27.425 
 1329  239.768    2.571    3.089   34.373   27.423 
 1330  239.790    2.575    3.089   34.373   27.422 
 1331  239.811    2.575    3.089   34.373   27.422 
 1332  239.822    2.573    3.088   34.373   27.422 
 1333  239.843    2.573    3.088   34.373   27.422 
 1334  239.854    2.573    3.088   34.373   27.422 
 1335  239.865    2.575    3.088   34.372   27.421 
 1336  239.876    2.573    3.088   34.371   27.421 
 1337  239.876    2.569    3.087   34.371   27.421 
 1338  239.886    2.562    3.087   34.370   27.421 
 1339  239.886    2.561    3.087   34.370   27.421 
 1340  239.908    2.557    3.087   34.371   27.422 
 1341  239.929    2.557    3.087   34.372   27.423 
 1342  239.929    2.553    3.087   34.373   27.424 
 1343  239.940    2.553    3.087   34.374   27.424 
 1344  239.951    2.553    3.087   34.374   27.424 
 1345  239.951    2.553    3.087   34.374   27.424 
 1346  239.951    2.546    3.086   34.374   27.424 
 1347  239.951    2.546    3.086   34.374   27.424 
 1348  239.951    2.546    3.086   34.373   27.424 
 1349  239.951    2.546    3.086   34.371   27.423 
 1350  239.951    2.550    3.086   34.369   27.421 
 1351  239.951    2.550    3.086   34.367   27.419 
 1352  239.951    2.546    3.085   34.361   27.415 
 1353  239.951    2.546    3.084   34.357   27.413 
 1354  239.951    2.541    3.084   34.357   27.413 
 1355  239.951    2.541    3.084   34.357   27.413 
 1356  239.919    2.541    3.084   34.357   27.413 
 1357  239.918    2.541    3.086   34.373   27.425 
 1358  239.908    2.555    3.087   34.375   27.425 
 1359  239.897    2.562    3.087   34.376   27.425 
 1360  239.897    2.562    3.088   34.376   27.425 
 1361  239.897    2.563    3.088   34.375   27.425 
 1362  239.865    2.563    3.088   34.373   27.423 
 1363  239.833    2.569    3.088   34.370   27.420 
 1364  239.822    2.569    3.088   34.370   27.420 
 1365  239.822    2.569    3.088   34.370   27.420 
 1366  239.811    2.569    3.088   34.370   27.420 
 1367  239.800    2.569    3.088   34.370   27.420 
 1368  239.757    2.561    3.086   34.370   27.420 
 1369  239.757    2.548    3.086   34.365   27.419 
 1370  239.747    2.548    3.085   34.365   27.419 
 1371  239.736    2.540    3.085   34.365   27.419 
 1372  239.704    2.540    3.085   34.365   27.419 
 1373  239.682    2.540    3.085   34.365   27.419 
 1374  239.650    2.548    3.086   34.371   27.422 
 1375  239.650    2.552    3.087   34.371   27.423 
 1376  239.639    2.554    3.087   34.372   27.423 
 1377  239.639    2.554    3.087   34.373   27.424 
 1378  239.607    2.554    3.087   34.373   27.424 
 1379  239.596    2.556    3.087   34.374   27.424 
 1380  239.575    2.559    3.087   34.374   27.424 
 1381  239.542    2.563    3.088   34.375   27.424 
 1382  239.510    2.564    3.088   34.375   27.424 
 1383  239.500    2.563    3.088   34.375   27.424 
 1384  239.489    2.561    3.088   34.373   27.423 
 1385  239.489    2.561    3.087   34.372   27.422 
 1386  239.467    2.560    3.087   34.370   27.421 
 1387  239.467    2.561    3.087   34.370   27.421 
 1388  239.424    2.561    3.087   34.370   27.421 
 1389  239.371    2.561    3.087   34.370   27.421 
 1390  239.349    2.561    3.087   34.370   27.421 
 1391  239.338    2.562    3.088   34.377   27.426 
 1392  239.338    2.565    3.088   34.377   27.426 
 1393  239.306    2.565    3.088   34.377   27.426 
 1394  239.285    2.565    3.088   34.377   27.426 
 1395  239.263    2.565    3.087   34.370   27.422 
 1396  239.252    2.558    3.087   34.370   27.422 
 1397  239.209    2.556    3.087   34.370   27.422 
 1398  239.177    2.554    3.086   34.369   27.421 
 1399  239.156    2.552    3.086   34.370   27.421 
 1400  239.124    2.549    3.086   34.370   27.421 
 1401  239.124    2.550    3.086   34.369   27.422 
 1402  239.124    2.552    3.087   34.369   27.422 
 1403  239.102    2.554    3.087   34.370   27.422 
 1404  239.102    2.554    3.086   34.370   27.422 
 1405  239.059    2.550    3.086   34.370   27.422 
 1406  239.048    2.550    3.086   34.370   27.422 
 1407  239.048    2.550    3.086   34.370   27.422 
 1408  239.048    2.547    3.086   34.370   27.422 
 1409  239.038    2.547    3.086   34.370   27.422 
 1410  239.038    2.546    3.086   34.373   27.422 
 1411  239.038    2.544    3.086   34.373   27.422 
 1412  239.038    2.544    3.086   34.370   27.423 
 1413  239.038    2.547    3.086   34.370   27.423 
 1414  239.038    2.553    3.086   34.372   27.422 
 1415  239.038    2.553    3.086   34.372   27.422 
 1416  239.059    2.548    3.086   34.370   27.422 
 1417  239.070    2.548    3.086   34.367   27.420 
 1418  239.091    2.548    3.086   34.367   27.420 
 1419  239.091    2.544    3.085   34.367   27.420 
 1420  239.091    2.540    3.085   34.365   27.419 
 1421  239.102    2.539    3.085   34.365   27.419 
 1422  239.113    2.539    3.085   34.365   27.419 
 1423  239.124    2.538    3.085   34.366   27.419 
 1424  239.145    2.538    3.085   34.366   27.419 
 1425  239.156    2.536    3.085   34.366   27.419 
 1426  239.166    2.536    3.085   34.366   27.420 
 1427  239.177    2.534    3.085   34.366   27.420 
 1428  239.177    2.534    3.084   34.366   27.420 
 1429  239.166    2.533    3.084   34.366   27.420 
 1430  239.156    2.533    3.084   34.366   27.420 
 1431  239.081    2.532    3.083   34.364   27.419 
 1432  239.027    2.526    3.084   34.363   27.418 
 1433  239.005    2.532    3.084   34.359   27.415 
 1434  238.995    2.528    3.083   34.359   27.415 
 1435  238.952    2.526    3.083   34.359   27.415 
 1436  238.941    2.522    3.083   34.359   27.415 
 1437  238.941    2.520    3.083   34.359   27.415 
 1438  238.941    2.520    3.083   34.360   27.416 
 1439  238.919    2.519    3.083   34.360   27.417 
 1440  238.876    2.514    3.083   34.365   27.421 
 1441  238.844    2.514    3.083   34.365   27.421 
 1442  238.844    2.514    3.083   34.365   27.421 
 1443  238.844    2.514    3.083   34.365   27.421 
 1444  238.823    2.514    3.083   34.365   27.421 
 1445  238.812    2.514    3.082   34.359   27.416 
 1446  238.812    2.513    3.081   34.354   27.413 
 1447  238.812    2.507    3.081   34.353   27.413 
 1448  238.812    2.499    3.079   34.353   27.413 
 1449  238.812    2.485    3.079   34.353   27.413 
 1450  238.812    2.485    3.079   34.353   27.413 
 1451  238.812    2.485    3.079   34.353   27.413 
 1452  238.812    2.485    3.080   34.359   27.418 
 1453  238.812    2.496    3.081   34.359   27.418 
 1454  238.823    2.498    3.081   34.359   27.418 
 1455  238.823    2.500    3.081   34.360   27.418 
 1456  238.823    2.500    3.081   34.360   27.418 
 1457  238.801    2.500    3.081   34.360   27.418 
 1458  238.801    2.500    3.081   34.361   27.418 
 1459  238.823    2.505    3.082   34.361   27.418 
 1460  238.823    2.508    3.082   34.361   27.418 
 1461  238.823    2.508    3.082   34.361   27.418 
 1462  238.823    2.508    3.081   34.358   27.416 
 1463  238.844    2.507    3.081   34.357   27.416 
 1464  238.876    2.507    3.081   34.357   27.416 
 1465  238.887    2.504    3.081   34.357   27.415 
 1466  238.887    2.499    3.080   34.357   27.415 
 1467  238.887    2.491    3.080   34.357   27.415 
 1468  238.909    2.487    3.080   34.354   27.415 
 1469  238.909    2.487    3.080   34.355   27.415 
 1470  238.909    2.487    3.080   34.355   27.415 
 1471  238.919    2.487    3.079   34.355   27.415 
 1472  238.919    2.481    3.079   34.355   27.416 
 1473  238.919    2.481    3.079   34.355   27.416 
 1474  238.919    2.481    3.079   34.355   27.416 
 1475  238.919    2.481    3.079   34.355   27.416 
 1476  238.919    2.477    3.079   34.355   27.416 
 1477  238.909    2.477    3.079   34.355   27.416 
 1478  238.909    2.477    3.079   34.355   27.416 
 1479  238.898    2.477    3.082   34.361   27.418 
 1480  238.876    2.515    3.083   34.361   27.418 
 1481  238.866    2.517    3.083   34.361   27.418 
 1482  238.855    2.517    3.083   34.361   27.418 
 1483  238.844    2.517    3.083   34.361   27.418 
 1484  238.833    2.517    3.082   34.360   27.418 
 1485  238.801    2.510    3.082   34.360   27.418 
 1486  238.780    2.507    3.082   34.360   27.418 
 1487  238.769    2.507    3.082   34.360   27.418 
 1488  238.715    2.507    3.082   34.360   27.418 
 1489  238.705    2.507    3.082   34.360   27.418 
 1490  238.672    2.507    3.082   34.360   27.418 
 1491  238.672    2.507    3.082   34.362   27.419 
 1492  238.662    2.509    3.082   34.364   27.420 
 1493  238.662    2.513    3.082   34.364   27.421 
 1494  238.651    2.513    3.082   34.366   27.422 
 1495  238.651    2.513    3.083   34.367   27.422 
 1496  238.586    2.517    3.083   34.367   27.422 
 1497  238.543    2.518    3.083   34.367   27.422 
 1498  238.543    2.529    3.085   34.367   27.421 
 1499  238.543    2.541    3.085   34.367   27.420 
 1500  238.533    2.542    3.085   34.367   27.420 
 1501  238.522    2.542    3.085   34.367   27.420 
 1502  238.522    2.542    3.085   34.367   27.420 
 1503  238.522    2.542    3.085   34.366   27.419 
 1504  238.490    2.537    3.085   34.365   27.419 
 1505  238.490    2.537    3.085   34.364   27.419 
 1506  238.490    2.534    3.084   34.364   27.419 
 1507  238.490    2.532    3.083   34.364   27.418 
 1508  238.490    2.521    3.083   34.363   27.418 
 1509  238.490    2.521    3.083   34.360   27.416 
 1510  238.490    2.521    3.083   34.360   27.416 
 1511  238.490    2.520    3.083   34.360   27.416 
 1512  238.468    2.519    3.082   34.360   27.416 
 1513  238.447    2.518    3.082   34.358   27.416 
 1514  238.447    2.517    3.082   34.357   27.416 
 1515  238.447    2.517    3.082   34.357   27.416 
 1516  238.447    2.506    3.080   34.357   27.416 
 1517  238.447    2.493    3.080   34.357   27.417 
 1518  238.447    2.486    3.080   34.357   27.417 
 1519  238.468    2.486    3.080   34.357   27.417 
 1520  238.468    2.486    3.080   34.359   27.419 
 1521  238.468    2.490    3.080   34.360   27.419 
 1522  238.468    2.493    3.080   34.362   27.420 
 1523  238.468    2.497    3.082   34.365   27.421 
 1524  238.436    2.512    3.083   34.367   27.421 
 1525  238.404    2.523    3.084   34.367   27.421 
 1526  238.404    2.530    3.084   34.367   27.421 
 1527  238.393    2.533    3.084   34.367   27.421 
 1528  238.382    2.533    3.084   34.366   27.420 
 1529  238.372    2.534    3.084   34.366   27.420 
 1530  238.361    2.535    3.084   34.366   27.420 
 1531  238.350    2.534    3.084   34.365   27.419 
 1532  238.350    2.534    3.084   34.363   27.417 
 1533  238.350    2.534    3.084   34.362   27.417 
 1534  238.350    2.527    3.083   34.359   27.416 
 1535  238.350    2.520    3.083   34.359   27.416 
 1536  238.350    2.518    3.082   34.359   27.416 
 1537  238.350    2.518    3.082   34.359   27.416 
 1538  238.296    2.518    3.082   34.359   27.416 
 1539  238.275    2.518    3.082   34.359   27.416 
 1540  238.275    2.518    3.082   34.359   27.416 
 1541  238.264    2.518    3.082   34.359   27.416 
 1542  238.253    2.514    3.082   34.363   27.419 
 1543  238.243    2.522    3.083   34.364   27.420 
 1544  238.243    2.522    3.083   34.364   27.420 
 1545  238.178    2.522    3.084   34.371   27.423 
 1546  238.157    2.534    3.085   34.371   27.423 
 1547  238.146    2.544    3.086   34.371   27.423 
 1548  238.146    2.549    3.086   34.371   27.423 
 1549  238.146    2.549    3.086   34.371   27.423 
 1550  238.157    2.553    3.086   34.370   27.422 
 1551  238.178    2.555    3.086   34.369   27.420 
 1552  238.221    2.556    3.086   34.369   27.420 
 1553  238.243    2.557    3.086   34.369   27.420 
 1554  238.253    2.558    3.087   34.369   27.420 
 1555  238.253    2.558    3.087   34.368   27.420 
 1556  238.264    2.561    3.087   34.370   27.421 
 1557  238.296    2.561    3.087   34.370   27.421 
 1558  238.361    2.561    3.087   34.370   27.421 
 1559  238.457    2.556    3.087   34.370   27.421 
 1560  238.522    2.556    3.087   34.368   27.420 
 1561  238.554    2.555    3.086   34.368   27.420 
 1562  238.597    2.553    3.086   34.368   27.420 
 1563  238.629    2.552    3.086   34.368   27.420 
 1564  238.683    2.552    3.086   34.368   27.420 
 1565  238.726    2.552    3.086   34.371   27.423 
 1566  238.780    2.552    3.086   34.371   27.423 
 1567  238.866    2.552    3.086   34.371   27.423 
 1568  238.930    2.552    3.089   34.379   27.425 
 1569  238.984    2.581    3.091   34.379   27.425 
 1570  239.005    2.596    3.091   34.379   27.425 
 1571  239.027    2.596    3.091   34.379   27.425 
 1572  239.048    2.596    3.091   34.379   27.425 
 1573  239.102    2.597    3.091   34.379   27.425 
 1574  239.156    2.597    3.091   34.379   27.425 
 1575  239.177    2.596    3.091   34.379   27.425 
 1576  239.177    2.596    3.091   34.378   27.425 
 1577  239.220    2.593    3.091   34.378   27.425 
 1578  239.252    2.597    3.091   34.378   27.425 
 1579  239.295    2.601    3.091   34.378   27.425 
 1580  239.338    2.601    3.091   34.382   27.427 
 1581  239.371    2.601    3.094   34.385   27.429 
 1582  239.381    2.615    3.094   34.392   27.429 
 1583  239.381    2.615    3.094   34.392   27.429 
 1584  239.392    2.622    3.094   34.392   27.429 
 1585  239.392    2.624    3.094   34.387   27.429 
 1586  239.456    2.627    3.094   34.385   27.428 
 1587  239.521    2.622    3.094   34.385   27.428 
 1588  239.575    2.622    3.094   34.385   27.427 
 1589  239.585    2.624    3.094   34.384   27.427 
 1590  239.585    2.624    3.094   34.384   27.427 
 1591  239.596    2.624    3.094   34.384   27.427 
 1592  239.607    2.622    3.093   34.384   27.427 
 1593  239.650    2.617    3.093   34.382   27.426 
 1594  239.736    2.616    3.093   34.382   27.426 
 1595  239.779    2.616    3.093   34.382   27.426 
 1596  239.789    2.612    3.093   34.382   27.426 
 1597  239.800    2.608    3.093   34.382   27.426 
 1598  239.843    2.608    3.092   34.382   27.427 
 1599  239.940    2.603    3.092   34.385   27.429 
 1600  240.026    2.603    3.092   34.385   27.429 
 1601  240.090    2.608    3.092   34.385   27.429 
 1602  240.122    2.608    3.092   34.385   27.429 
 1603  240.144    2.608    3.092   34.385   27.429 
 1604  240.187    2.608    3.092   34.385   27.429 
 1605  240.241    2.608    3.092   34.385   27.429 
 1606  240.294    2.608    3.092   34.380   27.425 
 1607  240.359    2.607    3.091   34.378   27.424 
 1608  240.402    2.602    3.091   34.378   27.424 
 1609  240.423    2.602    3.091   34.378   27.424 
 1610  240.445    2.602    3.091   34.378   27.424 
 1611  240.455    2.602    3.093   34.387   27.429 
 1612  240.488    2.619    3.094   34.387   27.429 
 1613  240.552    2.624    3.094   34.387   27.429 
 1614  240.574    2.624    3.094   34.387   27.429 
 1615  240.606    2.624    3.094   34.387   27.429 
 1616  240.638    2.624    3.094   34.386   27.428 
 1617  240.670    2.620    3.094   34.383   27.427 
 1618  240.670    2.620    3.093   34.382   27.426 
 1619  240.703    2.618    3.093   34.382   27.426 
 1620  240.735    2.618    3.093   34.382   27.426 
 1621  240.778    2.618    3.093   34.381   27.425 
 1622  240.799    2.618    3.093   34.381   27.425 
 1623  240.821    2.622    3.094   34.381   27.425 
 1624  240.821    2.623    3.093   34.378   27.422 
 1625  240.853    2.622    3.093   34.378   27.422 
 1626  240.896    2.622    3.093   34.377   27.422 
 1627  240.950    2.622    3.093   34.376   27.422 
 1628  240.982    2.607    3.091   34.376   27.422 
 1629  241.025    2.598    3.091   34.376   27.422 
 1630  241.036    2.598    3.091   34.375   27.422 
 1631  241.046    2.592    3.091   34.375   27.423 
 1632  241.089    2.592    3.091   34.379   27.425 
 1633  241.132    2.598    3.091   34.379   27.426 
 1634  241.154    2.599    3.093   34.386   27.430 
 1635  241.197    2.608    3.094   34.390   27.430 
 1636  241.197    2.621    3.094   34.390   27.430 
 1637  241.229    2.621    3.094   34.390   27.431 
 1638  241.240    2.625    3.094   34.388   27.432 
 1639  241.261    2.628    3.095   34.388   27.432 
 1640  241.283    2.631    3.094   34.390   27.432 
 1641  241.326    2.628    3.094   34.391   27.432 
 1642  241.379    2.636    3.096   34.393   27.433 
 1643  241.401    2.641    3.096   34.394   27.433 
 1644  241.422    2.644    3.096   34.394   27.433 
 1645  241.433    2.646    3.097   34.394   27.433 
 1646  241.454    2.650    3.097   34.393   27.432 
 1647  241.508    2.652    3.097   34.392   27.431 
 1648  241.530    2.652    3.097   34.392   27.431 
 1649  241.573    2.652    3.097   34.392   27.431 
 1650  241.583    2.652    3.097   34.392   27.431 
 1651  241.583    2.648    3.097   34.393   27.432 
 1652  241.605    2.648    3.097   34.393   27.432 
 1653  241.648    2.648    3.097   34.393   27.432 
 1654  241.680    2.648    3.097   34.393   27.432 
 1655  241.712    2.650    3.097   34.391   27.430 
 1656  241.712    2.650    3.097   34.391   27.430 
 1657  241.712    2.650    3.097   34.391   27.430 
 1658  241.723    2.650    3.097   34.391   27.430 
 1659  241.744    2.650    3.097   34.391   27.430 
 1660  241.766    2.650    3.097   34.391   27.430 
 1661  241.820    2.650    3.097   34.391   27.430 
 1662  241.841    2.653    3.098   34.396   27.433 
 1663  241.841    2.659    3.098   34.396   27.433 
 1664  241.841    2.659    3.098   34.396   27.433 
 1665  241.852    2.660    3.098   34.396   27.433 
 1666  241.863    2.662    3.098   34.396   27.433 
 1667  241.895    2.665    3.098   34.396   27.433 
 1668  241.938    2.661    3.098   34.396   27.433 
 1669  241.959    2.665    3.098   34.396   27.433 
 1670  241.959    2.665    3.098   34.396   27.433 
 1671  241.959    2.665    3.098   34.396   27.433 
 1672  241.970    2.665    3.098   34.396   27.433 
 1673  241.970    2.661    3.098   34.395   27.433 
 1674  241.970    2.655    3.097   34.395   27.433 
 1675  242.002    2.654    3.097   34.395   27.433 
 1676  242.002    2.654    3.097   34.396   27.433 
 1677  242.002    2.654    3.097   34.396   27.433 
 1678  242.002    2.655    3.097   34.396   27.433 
 1679  242.013    2.657    3.098   34.396   27.433 
 1680  242.013    2.657    3.098   34.396   27.433 
 1681  242.013    2.662    3.098   34.394   27.432 
 1682  242.034    2.662    3.098   34.392   27.430 
 1683  242.045    2.662    3.098   34.392   27.430 
 1684  242.056    2.659    3.098   34.392   27.430 
 1685  242.067    2.662    3.098   34.392   27.430 
 1686  242.077    2.659    3.098   34.394   27.432 
 1687  242.077    2.658    3.098   34.394   27.432 
 1688  242.077    2.658    3.097   34.394   27.432 
 1689  242.099    2.658    3.098   34.394   27.432 
 1690  242.110    2.658    3.098   34.394   27.432 
 1691  242.110    2.658    3.098   34.394   27.432 
 1692  242.131    2.658    3.098   34.395   27.432 
 1693  242.131    2.658    3.098   34.395   27.432 
 1694  242.142    2.658    3.098   34.395   27.432 
 1695  242.142    2.658    3.098   34.395   27.432 
 1696  242.196    2.657    3.098   34.395   27.432 
 1697  242.196    2.657    3.098   34.395   27.432 
 1698  242.196    2.657    3.098   34.395   27.432 
 1699  242.196    2.657    3.097   34.389   27.428 
 1700  242.196    2.657    3.097   34.389   27.428 
 1701  242.196    2.657    3.097   34.389   27.428 
 1702  242.196    2.657    3.097   34.389   27.428 
 1703  242.217    2.650    3.097   34.389   27.428 
 1704  242.217    2.648    3.096   34.388   27.428 
 1705  242.228    2.646    3.095   34.388   27.428 
 1706  242.228    2.637    3.095   34.387   27.428 
 1707  242.228    2.637    3.095   34.385   27.428 
 1708  242.217    2.639    3.096   34.383   27.428 
 1709  242.217    2.644    3.095   34.385   27.428 
 1710  242.217    2.639    3.095   34.388   27.429 
 1711  242.217    2.638    3.095   34.395   27.431 
 1712  242.217    2.639    3.096   34.393   27.431 
 1713  242.206    2.644    3.097   34.393   27.431 
 1714  242.206    2.651    3.097   34.393   27.431 
 1715  242.206    2.653    3.097   34.393   27.431 
 1716  242.206    2.653    3.097   34.393   27.431 
 1717  242.206    2.653    3.097   34.393   27.431 
 1718  242.196    2.653    3.097   34.393   27.431 
 1719  242.196    2.648    3.096   34.389   27.429 
 1720  242.196    2.643    3.096   34.389   27.429 
 1721  242.196    2.643    3.096   34.389   27.429 
 1722  242.206    2.643    3.096   34.389   27.429 
 1723  242.206    2.642    3.096   34.389   27.429 
 1724  242.228    2.640    3.096   34.388   27.429 
 1725  242.239    2.640    3.096   34.388   27.429 
 1726  242.239    2.640    3.095   34.388   27.429 
 1727  242.239    2.637    3.095   34.389   27.430 
 1728  242.249    2.629    3.095   34.389   27.430 
 1729  242.271    2.629    3.095   34.389   27.430 
 1730  242.281    2.629    3.095   34.393   27.433 
 1731  242.281    2.629    3.095   34.393   27.433 
 1732  242.281    2.629    3.095   34.393   27.433 
 1733  242.281    2.631    3.095   34.393   27.433 
 1734  242.281    2.632    3.095   34.393   27.433 
 1735  242.303    2.639    3.096   34.390   27.430 
 1736  242.303    2.639    3.096   34.390   27.430 
 1737  242.303    2.639    3.096   34.390   27.430 
 1738  242.314    2.637    3.095   34.388   27.429 
 1739  242.314    2.632    3.095   34.387   27.429 
 1740  242.314    2.632    3.095   34.387   27.428 
 1741  242.314    2.628    3.093   34.381   27.425 
 1742  242.324    2.611    3.092   34.381   27.425 
 1743  242.324    2.609    3.092   34.380   27.424 
 1744  242.335    2.609    3.092   34.377   27.423 
 1745  242.335    2.609    3.091   34.377   27.423 
 1746  242.335    2.602    3.091   34.377   27.423 
 1747  242.346    2.602    3.091   34.377   27.423 
 1748  242.357    2.602    3.091   34.377   27.423 
 1749  242.357    2.609    3.092   34.377   27.423 
 1750  242.378    2.601    3.091   34.377   27.423 
 1751  242.378    2.592    3.091   34.377   27.424 
 1752  242.378    2.586    3.089   34.377   27.425 
 1753  242.389    2.586    3.089   34.385   27.430 
 1754  242.410    2.588    3.091   34.385   27.430 
 1755  242.410    2.592    3.091   34.385   27.430 
 1756  242.421    2.592    3.091   34.385   27.430 
 1757  242.432    2.599    3.092   34.385   27.430 
 1758  242.432    2.599    3.092   34.385   27.430 
 1759  242.432    2.599    3.092   34.385   27.430 
 1760  242.475    2.599    3.091   34.385   27.430 
 1761  242.475    2.595    3.091   34.381   27.430 
 1762  242.475    2.595    3.091   34.381   27.430 
 1763  242.486    2.593    3.091   34.381   27.430 
 1764  242.486    2.585    3.089   34.385   27.431 
 1765  242.486    2.584    3.091   34.385   27.431 
 1766  242.496    2.585    3.091   34.385   27.431 
 1767  242.507    2.591    3.091   34.386   27.431 
 1768  242.518    2.591    3.091   34.388   27.432 
 1769  242.528    2.591    3.092   34.386   27.432 
 1770  242.518    2.599    3.092   34.386   27.432 
 1771  242.496    2.599    3.092   34.388   27.432 
 1772  242.496    2.599    3.092   34.388   27.432 
 1773  242.496    2.599    3.092   34.388   27.432 
 1774  242.486    2.599    3.092   34.388   27.432 
 1775  242.475    2.599    3.092   34.388   27.432 
 1776  242.475    2.599    3.092   34.388   27.432 
 1777  242.475    2.601    3.092   34.386   27.431 
 1778  242.475    2.601    3.092   34.385   27.430 
 1779  242.475    2.601    3.092   34.385   27.430 
 1780  242.475    2.601    3.092   34.385   27.430 
 1781  242.464    2.601    3.090   34.380   27.427 
 1782  242.464    2.585    3.090   34.380   27.427 
 1783  242.464    2.585    3.090   34.380   27.427 
 1784  242.464    2.585    3.090   34.380   27.427 
 1785  242.464    2.585    3.090   34.380   27.427 
 1786  242.464    2.585    3.090   34.380   27.427 
 1787  242.475    2.586    3.090   34.378   27.425 
 1788  242.507    2.583    3.089   34.367   27.417 
 1789  242.539    2.583    3.089   34.367   27.417 
 1790  242.561    2.580    3.089   34.367   27.417 
 1791  242.561    2.580    3.089   34.367   27.417 
 1792  242.561    2.580    3.090   34.380   27.427 
 1793  242.561    2.586    3.090   34.385   27.429 
 1794  242.561    2.597    3.093   34.385   27.429 
 1795  242.561    2.609    3.093   34.385   27.429 
 1796  242.571    2.609    3.093   34.385   27.429 
 1797  242.582    2.609    3.093   34.385   27.429 
 1798  242.604    2.609    3.090   34.376   27.423 
 1799  242.614    2.592    3.090   34.376   27.423 
 1800  242.614    2.592    3.090   34.376   27.423 
 1801  242.625    2.592    3.090   34.376   27.423 
 1802  242.625    2.592    3.091   34.378   27.424 
 1803  242.625    2.601    3.091   34.378   27.424 
 1804  242.636    2.601    3.091   34.378   27.424 
 1805  242.636    2.601    3.091   34.378   27.424 
 1806  242.636    2.601    3.091   34.378   27.424 
 1807  242.625    2.601    3.091   34.378   27.424 
 1808  242.625    2.594    3.091   34.378   27.424 
 1809  242.625    2.593    3.091   34.378   27.424 
 1810  242.625    2.591    3.091   34.377   27.424 
 1811  242.582    2.585    3.090   34.377   27.424 
 1812  242.561    2.582    3.089   34.374   27.423 
 1813  242.561    2.581    3.089   34.374   27.422 
 1814  242.561    2.581    3.089   34.369   27.422 
 1815  242.561    2.567    3.088   34.369   27.422 
 1816  242.561    2.566    3.088   34.372   27.423 
 1817  242.571    2.566    3.088   34.374   27.424 
 1818  242.582    2.563    3.088   34.375   27.425 
 1819  242.582    2.563    3.088   34.377   27.425 
 1820  242.582    2.563    3.089   34.377   27.425 
 1821  242.571    2.573    3.089   34.377   27.425 
 1822  242.582    2.573    3.089   34.377   27.425 
 1823  242.582    2.573    3.089   34.374   27.423 
 1824  242.582    2.572    3.089   34.373   27.422 
 1825  242.571    2.572    3.088   34.364   27.415 
 1826  242.571    2.559    3.086   34.356   27.415 
 1827  242.571    2.532    3.081   34.356   27.415 
 1828  242.571    2.504    3.081   34.356   27.415 
 1829  242.550    2.503    3.081   34.356   27.415 
 1830  242.528    2.503    3.081   34.356   27.415 
 1831  242.528    2.503    3.081   34.356   27.415 
 1832  242.528    2.504    3.086   34.365   27.419 
 1833  242.518    2.551    3.087   34.367   27.422 
 1834  242.507    2.557    3.087   34.371   27.422 
 1835  242.464    2.565    3.087   34.373   27.423 
 1836  242.453    2.565    3.088   34.373   27.423 
 1837  242.453    2.569    3.088   34.375   27.424 
 1838  242.443    2.571    3.089   34.378   27.425 
 1839  242.443    2.584    3.090   34.378   27.425 
 1840  242.432    2.585    3.090   34.378   27.425 
 1841  242.400    2.586    3.090   34.378   27.425 
 1842  242.400    2.586    3.090   34.376   27.424 
 1843  242.400    2.585    3.090   34.375   27.423 
 1844  242.400    2.585    3.090   34.375   27.423 
 1845  242.421    2.582    3.089   34.366   27.419 
 1846  242.421    2.564    3.086   34.366   27.419 
 1847  242.421    2.553    3.086   34.366   27.419 
 1848  242.421    2.553    3.086   34.366   27.419 
 1849  242.410    2.553    3.086   34.366   27.419 
 1850  242.410    2.539    3.086   34.367   27.419 
 1851  242.410    2.553    3.086   34.367   27.420 
 1852  242.410    2.553    3.086   34.381   27.421 
 1853  242.410    2.539    3.086   34.381   27.421 
 1854  242.410    2.539    3.086   34.368   27.421 
 1855  242.410    2.539    3.087   34.370   27.421 
 1856  242.421    2.557    3.087   34.370   27.421 
 1857  242.421    2.557    3.087   34.370   27.421 
 1858  242.432    2.556    3.087   34.368   27.420 
 1859  242.464    2.556    3.087   34.368   27.420 
 1860  242.464    2.556    3.086   34.368   27.420 
 1861  242.485    2.552    3.086   34.368   27.420 
 1862  242.485    2.548    3.086   34.367   27.420 
 1863  242.485    2.546    3.086   34.367   27.420 
 1864  242.507    2.546    3.086   34.367   27.420 
 1865  242.550    2.546    3.086   34.367   27.420 
 1866  242.571    2.544    3.086   34.367   27.420 
 1867  242.604    2.541    3.085   34.367   27.420 
 1868  242.614    2.541    3.085   34.366   27.419 
 1869  242.657    2.541    3.085   34.366   27.419 
 1870  242.679    2.541    3.085   34.365   27.419 
 1871  242.711    2.540    3.085   34.365   27.419 
 1872  242.754    2.540    3.085   34.366   27.419 
 1873  242.765    2.540    3.085   34.365   27.419 
 1874  242.765    2.534    3.085   34.365   27.419 
 1875  242.776    2.534    3.085   34.364   27.419 
 1876  242.786    2.534    3.084   34.363   27.418 
 1877  242.808    2.533    3.084   34.363   27.418 
 1878  242.861    2.528    3.084   34.362   27.418 
 1879  242.915    2.526    3.083   34.362   27.418 
 1880  242.947    2.526    3.083   34.362   27.418 
 1881  242.947    2.526    3.083   34.362   27.418 
 1882  242.947    2.526    3.084   34.362   27.418 
 1883  242.958    2.526    3.084   34.362   27.418 
 1884  242.969    2.525    3.084   34.362   27.418 
 1885  242.969    2.527    3.084   34.363   27.419 
 1886  243.001    2.531    3.084   34.365   27.419 
 1887  243.055    2.535    3.084   34.365   27.419 
 1888  243.055    2.542    3.085   34.366   27.419 
 1889  243.066    2.542    3.085   34.365   27.419 
 1890  243.066    2.542    3.086   34.365   27.419 
 1891  243.087    2.552    3.087   34.365   27.419 
 1892  243.119    2.552    3.086   34.365   27.419 
 1893  243.151    2.552    3.086   34.367   27.418 
 1894  243.205    2.543    3.085   34.367   27.418 
 1895  243.227    2.541    3.085   34.364   27.418 
 1896  243.237    2.541    3.085   34.364   27.418 
 1897  243.259    2.541    3.085   34.364   27.418 
 1898  243.280    2.540    3.085   34.364   27.418 
 1899  243.323    2.540    3.085   34.364   27.418 
 1900  243.356    2.540    3.085   34.364   27.418 
 1901  243.377    2.540    3.085   34.364   27.418 
 1902  243.377    2.540    3.085   34.364   27.418 
 1903  243.388    2.540    3.085   34.364   27.418 
 1904  243.409    2.543    3.085   34.364   27.418 
 1905  243.463    2.543    3.085   34.363   27.418 
 1906  243.517    2.543    3.085   34.363   27.418 
 1907  243.527    2.537    3.085   34.363   27.418 
 1908  243.538    2.535    3.084   34.365   27.419 
 1909  243.549    2.535    3.085   34.365   27.419 
 1910  243.560    2.537    3.085   34.365   27.419 
 1911  243.581    2.537    3.085   34.365   27.419 
 1912  243.646    2.537    3.085   34.365   27.419 
 1913  243.667    2.536    3.085   34.365   27.419 
 1914  243.699    2.536    3.085   34.365   27.419 
 1915  243.710    2.536    3.085   34.365   27.419 
 1916  243.721    2.536    3.084   34.365   27.419 
 1917  243.764    2.532    3.084   34.365   27.420 
 1918  243.796    2.531    3.084   34.366   27.420 
 1919  243.839    2.531    3.084   34.366   27.420 
 1920  243.860    2.531    3.084   34.366   27.420 
 1921  243.871    2.531    3.084   34.366   27.420 
 1922  243.882    2.532    3.085   34.369   27.422 
 1923  243.914    2.546    3.086   34.370   27.422 
 1924  243.946    2.551    3.086   34.370   27.422 
 1925  243.957    2.551    3.087   34.370   27.422 
 1926  243.968    2.554    3.087   34.369   27.421 
 1927  243.979    2.556    3.087   34.368   27.420 
 1928  243.989    2.554    3.086   34.368   27.420 
 1929  244.000    2.551    3.086   34.368   27.420 
 1930  244.032    2.551    3.086   34.367   27.420 
 1931  244.032    2.551    3.086   34.368   27.420 
 1932  244.032    2.551    3.086   34.368   27.420 
 1933  244.032    2.549    3.086   34.368   27.420 
 1934  244.032    2.547    3.086   34.366   27.419 
 1935  244.032    2.547    3.086   34.366   27.419 
 1936  244.032    2.547    3.086   34.365   27.418 
 1937  244.032    2.547    3.086   34.365   27.418 
 1938  244.054    2.547    3.086   34.365   27.418 
 1939  244.097    2.548    3.086   34.365   27.418 
 1940  244.118    2.548    3.086   34.367   27.420 
 1941  244.118    2.548    3.086   34.369   27.421 
 1942  244.118    2.548    3.086   34.369   27.421 
 1943  244.118    2.548    3.086   34.370   27.422 
 1944  244.075    2.549    3.086   34.370   27.422 
 1945  244.022    2.549    3.086   34.370   27.422 
 1946  243.936    2.549    3.086   34.370   27.422 
 1947  243.860    2.553    3.087   34.371   27.422 
 1948  243.775    2.555    3.087   34.371   27.422 
 1949  243.699    2.557    3.087   34.371   27.422 
 1950  243.613    2.560    3.087   34.371   27.422 
 1951  243.517    2.560    3.088   34.371   27.422 
 1952  243.431    2.563    3.088   34.371   27.421 
 1953  243.323    2.566    3.088   34.369   27.420 
 1954  243.237    2.566    3.088   34.369   27.420 
 1955  243.162    2.566    3.088   34.369   27.420 
 1956  243.098    2.563    3.087   34.369   27.420 
 1957  243.023    2.555    3.086   34.369   27.421 
 1958  242.947    2.550    3.086   34.371   27.422 
 1959  242.872    2.550    3.086   34.371   27.422 
 1960  242.776    2.550    3.086   34.371   27.422 
 1961  242.679    2.550    3.086   34.371   27.422 
 1962  242.614    2.552    3.087   34.371   27.422 
 1963  242.539    2.556    3.087   34.368   27.420 
 1964  242.453    2.556    3.087   34.368   27.420 
 1965  242.378    2.556    3.086   34.367   27.419 
 1966  242.324    2.552    3.086   34.365   27.418 
 1967  242.238    2.549    3.086   34.363   27.417 
 1968  242.153    2.546    3.085   34.359   27.416 
 1969  242.099    2.529    3.083   34.359   27.415 
 1970  242.024    2.519    3.083   34.359   27.415 
 1971  241.970    2.519    3.083   34.358   27.415 
 1972  241.884    2.519    3.083   34.358   27.415 
 1973  241.809    2.518    3.083   34.358   27.415 
 1974  241.744    2.515    3.082   34.358   27.415 
 1975  241.701    2.514    3.081   34.358   27.415 
 1976  241.637    2.511    3.082   34.354   27.412 
 1977  241.562    2.514    3.083   34.354   27.412 
 1978  241.508    2.514    3.083   34.354   27.412 
 1979  241.444    2.514    3.082   34.354   27.412 
 1980  241.379    2.511    3.082   34.353   27.412 
 1981  241.325    2.511    3.081   34.353   27.412 
 1982  241.272    2.511    3.081   34.353   27.412 
 1983  241.239    2.511    3.081   34.354   27.412 
 1984  241.175    2.505    3.081   34.355   27.414 
 1985  241.100    2.505    3.081   34.355   27.414 
 1986  241.046    2.505    3.081   34.355   27.414 
 1987  240.992    2.505    3.081   34.355   27.414 
 1988  240.971    2.505    3.079   34.353   27.414 
 1989  240.939    2.492    3.079   34.353   27.414 
 1990  240.896    2.482    3.079   34.353   27.414 
 1991  240.842    2.478    3.079   34.353   27.414 
 1992  240.788    2.470    3.078   34.354   27.416 
 1993  240.745    2.469    3.078   34.355   27.417 
 1994  240.713    2.468    3.078   34.355   27.417 
 1995  240.681    2.468    3.078   34.355   27.417 
 1996  240.627    2.468    3.078   34.355   27.417 
 1997  240.595    2.468    3.078   34.355   27.417 
 1998  240.531    2.468    3.078   34.357   27.417 
 1999  240.498    2.478    3.078   34.357   27.417 
 2000  240.466    2.482    3.080   34.357   27.418 
 2001  240.423    2.495    3.083   34.364   27.420 
 2002  240.391    2.524    3.083   34.365   27.420 
 2003  240.316    2.524    3.082   34.365   27.420 
 2004  240.273    2.499    3.082   34.364   27.420 
 2005  240.230    2.499    3.082   34.349   27.412 
 2006  240.208    2.499    3.077   34.348   27.412 
 2007  240.165    2.460    3.077   34.348   27.412 
 2008  240.133    2.460    3.077   34.348   27.410 
 2009  240.069    2.460    3.077   34.336   27.409 
 2010  240.004    2.460    3.076   34.348   27.402 
 2011  239.950    2.460    3.076   34.336   27.402 
 2012  239.907    2.460    3.076   34.336   27.402 
 2013  239.875    2.460    3.079   34.336   27.402 
 2014  239.811    2.478    3.076   34.334   27.399 
 2015  239.725    2.444    3.074   34.331   27.399 
 2016  239.650    2.424    3.072   34.316   27.390 
 2017  239.585    2.402    3.069   34.315   27.390 
 2018  239.532    2.397    3.062   34.305   27.390 
 2019  239.467    2.315    3.059   34.305   27.390 
 2020  239.392    2.308    3.059   34.305   27.390 
 2021  239.306    2.294    3.059   34.305   27.391 
 2022  239.209    2.285    3.058   34.310   27.396 
 2023  239.123    2.283    3.058   34.312   27.398 
 2024  239.027    2.283    3.059   34.317   27.400 
 2025  238.941    2.283    3.059   34.317   27.400 
 2026  238.812    2.283    3.060   34.317   27.400 
 2027  238.694    2.308    3.061   34.317   27.400 
 2028  238.597    2.310    3.061   34.315   27.398 
 2029  238.511    2.310    3.061   34.315   27.398 
 2030  238.414    2.310    3.061   34.315   27.398 
 2031  238.318    2.310    3.060   34.310   27.394 
 2032  238.167    2.302    3.057   34.298   27.385 
 2033  238.060    2.266    3.054   34.293   27.384 
 2034  237.942    2.249    3.054   34.292   27.384 
 2035  237.824    2.248    3.054   34.291   27.384 
 2036  237.673    2.245    3.053   34.291   27.384 
 2037  237.512    2.241    3.053   34.291   27.385 
 2038  237.351    2.236    3.052   34.291   27.385 
 2039  237.211    2.228    3.052   34.291   27.385 
 2040  237.039    2.228    3.052   34.291   27.385 
 2041  236.867    2.228    3.051   34.288   27.385 
 2042  236.696    2.223    3.051   34.290   27.385 
 2043  236.545    2.222    3.051   34.290   27.384 
 2044  236.373    2.220    3.051   34.288   27.383 
 2045  236.169    2.213    3.050   34.287   27.383 
 2046  235.997    2.210    3.050   34.286   27.383 
 2047  235.804    2.209    3.049   34.280   27.379 
 2048  235.611    2.209    3.049   34.280   27.379 
 2049  235.385    2.209    3.049   34.280   27.378 
 2050  235.181    2.208    3.048   34.274   27.376 
 2051  234.977    2.179    3.047   34.273   27.376 
 2052  234.762    2.176    3.045   34.273   27.376 
 2053  234.558    2.176    3.045   34.273   27.376 
 2054  234.343    2.163    3.045   34.276   27.379 
 2055  234.096    2.159    3.044   34.276   27.379 
 2056  233.870    2.159    3.044   34.276   27.379 
 2057  233.623    2.159    3.045   34.277   27.380 
 2058  233.398    2.161    3.045   34.277   27.380 
 2059  233.151    2.163    3.045   34.277   27.380 
 2060  232.882    2.164    3.045   34.277   27.380 
 2061  232.635    2.164    3.045   34.277   27.380 
 2062  232.356    2.164    3.045   34.277   27.379 
 2063  232.109    2.164    3.045   34.277   27.379 
 2064  231.851    2.164    3.045   34.276   27.379 
 2065  231.571    2.161    3.044   34.273   27.376 
 2066  231.271    2.158    3.044   34.273   27.376 
 2067  230.970    2.146    3.039   34.270   27.375 
 2068  230.669    2.096    3.039   34.252   27.370 
 2069  230.358    2.096    3.036   34.252   27.366 
 2070  230.046    2.089    3.036   34.252   27.366 
 2071  229.724    2.086    3.036   34.258   27.366 
 2072  229.391    2.079    3.036   34.252   27.366 
 2073  229.025    2.079    3.036   34.252   27.366 
 2074  228.703    2.079    3.036   34.252   27.366 
 2075  228.359    2.075    3.034   34.251   27.365 
 2076  228.005    2.057    3.033   34.247   27.364 
 2077  227.650    2.053    3.033   34.245   27.362 
 2078  227.274    2.050    3.032   34.241   27.361 
 2079  226.898    2.048    3.031   34.241   27.360 
 2080  226.522    2.030    3.030   34.241   27.360 
 2081  226.146    2.029    3.030   34.239   27.360 
 2082  225.738    2.025    3.029   34.239   27.360 
 2083  225.341    2.020    3.029   34.239   27.360 
 2084  224.943    2.019    3.028   34.239   27.360 
 2085  224.503    2.005    3.028   34.232   27.356 
 2086  224.073    2.003    3.027   34.232   27.356 
 2087  223.632    2.003    3.027   34.230   27.356 
 2088  223.181    1.995    3.026   34.230   27.356 
 2089  222.751    1.984    3.026   34.230   27.356 
 2090  222.322    1.983    3.024   34.230   27.356 
 2091  221.881    1.975    3.024   34.230   27.357 
 2092  221.409    1.975    3.024   34.235   27.358 
 2093  220.936    1.975    3.025   34.233   27.359 
 2094  220.463    1.983    3.026   34.233   27.359 
 2095  219.969    1.984    3.026   34.233   27.359 
 2096  219.496    1.984    3.025   34.233   27.358 
 2097  219.002    1.984    3.025   34.233   27.358 
 2098  218.497    1.984    3.025   34.233   27.358 
 2099  217.981    1.971    3.023   34.226   27.354 
 2100  217.476    1.964    3.022   34.219   27.349 
 2101  216.928    1.964    3.022   34.219   27.349 
 2102  216.402    1.953    3.020   34.213   27.347 
 2103  215.854    1.931    3.019   34.213   27.347 
 2104  215.285    1.923    3.018   34.213   27.347 
 2105  214.747    1.923    3.018   34.209   27.347 
 2106  214.189    1.916    3.018   34.212   27.347 
 2107  213.609    1.916    3.018   34.212   27.346 
 2108  213.028    1.911    3.016   34.209   27.345 
 2109  212.437    1.902    3.016   34.209   27.345 
 2110  211.836    1.898    3.015   34.209   27.345 
 2111  211.245    1.896    3.015   34.207   27.345 
 2112  210.665    1.893    3.015   34.207   27.344 
 2113  210.052    1.886    3.014   34.206   27.344 
 2114  209.418    1.883    3.014   34.206   27.344 
 2115  208.795    1.883    3.014   34.205   27.344 
 2116  208.161    1.877    3.013   34.205   27.344 
 2117  207.527    1.876    3.013   34.204   27.344 
 2118  206.872    1.868    3.012   34.204   27.343 
 2119  206.238    1.865    3.012   34.201   27.342 
 2120  205.593    1.864    3.012   34.199   27.340 
 2121  204.916    1.862    3.011   34.199   27.340 
 2122  204.239    1.855    3.009   34.189   27.337 
 2123  203.552    1.829    3.006   34.189   27.337 
 2124  202.842    1.810    3.006   34.189   27.337 
 2125  202.166    1.810    3.006   34.189   27.337 
 2126  201.478    1.810    3.006   34.190   27.337 
 2127  200.779    1.810    3.007   34.196   27.341 
 2128  200.049    1.819    3.007   34.196   27.341 
 2129  199.307    1.819    3.007   34.196   27.341 
 2130  198.609    1.819    3.007   34.196   27.341 
 2131  197.900    1.819    3.005   34.190   27.336 
 2132  197.190    1.807    3.005   34.188   27.336 
 2133  196.438    1.806    3.005   34.183   27.334 
 2134  195.686    1.796    3.002   34.183   27.333 
 2135  194.934    1.776    3.002   34.183   27.333 
 2136  194.171    1.776    3.002   34.182   27.333 
 2137  193.440    1.772    3.002   34.181   27.333 
 2138  192.720    1.771    3.002   34.181   27.333 
 2139  191.990    1.771    3.002   34.181   27.333 
 2140  191.205    1.771    3.001   34.173   27.327 
 2141  190.388    1.760    2.999   34.164   27.320 
 2142  189.593    1.744    2.997   34.157   27.316 
 2143  188.873    1.714    2.991   34.123   27.291 
 2144  188.164    1.667    2.988   34.115   27.288 
 2145  187.412    1.609    2.969   33.945   27.192 
 2146  186.595    1.379    2.944   33.945   27.192 
 2147  185.757    1.191    2.929   33.945   27.192 
 2148  184.983    1.073    2.923   33.945   27.192 
 2149  184.241    1.025    2.922   33.955   27.203 
 2150  183.489    0.999    2.919   33.962   27.211 
 2151  182.683    0.980    2.916   33.969   27.215 
 2152  181.856    0.951    2.914   33.969   27.215 
 2153  180.974    0.942    2.914   33.967   27.215 
 2154  180.147    0.936    2.913   33.962   27.215 
 2155  179.298    0.931    2.912   33.962   27.215 
 2156  178.470    0.921    2.910   33.949   27.208 
 2157  177.600    0.895    2.908   33.948   27.207 
 2158  176.708    0.877    2.906   33.948   27.207 
 2159  175.837    0.865    2.905   33.947   27.205 
 2160  174.924    0.856    2.904   33.944   27.205 
 2161  174.021    0.842    2.900   33.903   27.173 
 2162  173.118    0.768    2.885   33.860   27.143 
 2163  172.259    0.637    2.879   33.795   27.104 
 2164  171.366    0.562    2.862   33.781   27.104 
 2165  170.431    0.407    2.852   33.781   27.104 
 2166  169.475    0.331    2.847   33.781   27.104 
 2167  168.529    0.270    2.842   33.779   27.107 
 2168  167.572    0.231    2.840   33.779   27.107 
 2169  166.605    0.214    2.839   33.779   27.107 
 2170  165.649    0.205    2.836   33.779   27.107 
 2171  164.670    0.151    2.826   33.754   27.092 
 2172  163.692    0.065    2.821   33.735   27.082 
 2173  162.747    0.031    2.820   33.731   27.081 
 2174  161.779    0.021    2.817   33.729   27.080 
 2175  160.790   -0.010    2.814   33.729   27.079 
 2176  159.791   -0.034    2.813   33.723   27.077 
 2177  158.748   -0.052    2.809   33.711   27.068 
 2178  157.727   -0.089    2.804   33.705   27.065 
 2179  156.706   -0.131    2.802   33.702   27.065 
 2180  155.717   -0.144    2.801   33.684   27.051 
 2181  154.717   -0.166    2.796   33.674   27.044 
 2182  153.707   -0.214    2.792   33.669   27.043 
 2183  152.632   -0.246    2.790   33.668   27.042 
 2184  151.578   -0.253    2.789   33.664   27.040 
 2185  150.493   -0.261    2.788   33.664   27.040 
 2186  149.429   -0.265    2.788   33.664   27.040 
 2187  148.386   -0.273    2.786   33.646   27.026 
 2188  147.343   -0.301    2.780   33.601   26.991 
 2189  146.311   -0.366    2.771   33.557   26.959 
 2190  145.301   -0.449    2.763   33.544   26.951 
 2191  144.269   -0.543    2.754   33.527   26.948 
 2192  143.194   -0.636    2.741   33.527   26.947 
 2193  142.097   -0.775    2.731   33.522   26.946 
 2194  141.033   -0.831    2.730   33.521   26.944 
 2195  140.033   -0.831    2.730   33.515   26.944 
 2196  139.001   -0.831    2.730   33.516   26.944 
 2197  137.915   -0.831    2.729   33.516   26.944 
 2198  136.786   -0.840    2.729   33.515   26.944 
 2199  135.679   -0.848    2.728   33.514   26.943 
 2200  134.593   -0.859    2.726   33.498   26.931 
 2201  133.529   -0.861    2.722   33.494   26.928 
 2202  132.422   -0.893    2.719   33.477   26.915 
 2203  131.304   -0.934    2.719   33.453   26.897 
 2204  130.164   -0.934    2.718   33.447   26.892 
 2205  129.056   -0.934    2.713   33.446   26.891 
 2206  127.960   -0.935    2.713   33.438   26.885 
 2207  126.906   -0.986    2.711   33.419   26.871 
 2208  125.777   -0.988    2.710   33.417   26.870 
 2209  124.584   -0.988    2.707   33.415   26.869 
 2210  123.369   -1.015    2.706   33.415   26.869 
 2211  122.197   -1.019    2.706   33.415   26.868 
 2212  121.122   -1.019    2.706   33.412   26.867 
 2213  120.014   -1.019    2.706   33.412   26.867 
 2214  118.874   -1.019    2.704   33.395   26.853 
 2215  117.659   -1.019    2.704   33.394   26.852 
 2216  116.455   -1.019    2.704   33.393   26.852 
 2217  115.272   -1.019    2.700   33.345   26.813 
 2218  114.090   -1.009    2.698   33.307   26.781 
 2219  112.950   -1.009    2.698   33.298   26.774 
 2220  111.831   -1.013    2.697   33.291   26.769 
 2221  110.670   -1.016    2.697   33.289   26.767 
 2222  109.433   -1.013    2.696   33.283   26.762 
 2223  108.089   -1.013    2.695   33.269   26.751 
 2224  106.777   -1.011    2.695   33.267   26.749 
 2225  105.605   -1.011    2.695   33.266   26.749 
 2226  104.455   -1.011    2.695   33.266   26.748 
 2227  103.250   -1.008    2.695   33.262   26.745 
 2228  101.949   -1.003    2.694   33.245   26.731 
 2229  100.637   -0.988    2.694   33.228   26.717 
 2230   99.346   -0.978    2.694   33.217   26.707 
 2231   98.045   -0.971    2.694   33.210   26.701 
 2232   96.690   -0.969    2.694   33.207   26.699 
 2233   95.410   -0.968    2.694   33.206   26.698 
 2234   94.174   -0.968    2.693   33.206   26.698 
 2235   92.862   -0.968    2.693   33.206   26.698 
 2236   91.453   -0.968    2.692   33.189   26.685 
 2237   89.990   -0.968    2.690   33.168   26.668 
 2238   88.549   -0.973    2.690   33.163   26.664 
 2239   87.226   -0.973    2.689   33.156   26.658 
 2240   85.989   -0.974    2.689   33.151   26.654 
 2241   84.688   -0.975    2.686   33.119   26.628 
 2242   83.246   -0.975    2.686   33.119   26.628 
 2243   81.740   -0.976    2.685   33.107   26.618 
 2244   80.278   -0.978    2.685   33.104   26.616 
 2245   78.890   -0.979    2.684   33.094   26.608 
 2246   77.449   -0.979    2.682   33.079   26.596 
 2247   75.943   -0.979    2.681   33.065   26.584 
 2248   74.437   -0.979    2.680   33.045   26.568 
 2249   73.060   -0.977    2.679   33.031   26.557 
 2250   71.683   -0.968    2.678   33.015   26.544 
 2251   70.328   -0.960    2.678   33.005   26.536 
 2252   68.822   -0.958    2.678   33.003   26.534 
 2253   67.348   -0.956    2.678   33.001   26.532 
 2254   66.068   -0.956    2.678   33.001   26.532 
 2255   65.068   -0.955    2.678   33.001   26.532 
 2256   64.143   -0.952    2.678   33.001   26.531 
 2257   63.250   -0.947    2.679   33.001   26.531 
 2258   62.292   -0.909    2.683   33.001   26.530 
 2259   61.292   -0.863    2.683   32.999   26.527 
 2260   60.248   -0.848    2.684   32.979   26.510 
 2261   59.151   -0.808    2.690   32.968   26.500 
 2262   58.086   -0.701    2.697   32.967   26.495 
 2263   57.107   -0.635    2.698   32.930   26.462 
 2264   56.181   -0.619    2.698   32.928   26.460 
 2265   55.267   -0.609    2.700   32.925   26.457 
 2266   54.255   -0.575    2.703   32.913   26.446 
 2267   53.212   -0.540    2.703   32.890   26.426 
 2268   52.136   -0.517    2.703   32.866   26.406 
 2269   51.071   -0.499    2.703   32.847   26.390 
 2270   50.436   -0.499    2.702   32.832   26.378 
 2271   49.963   -0.499    2.701   32.831   26.378 
 2272   49.381   -0.499    2.701   32.831   26.378 
 2273   48.919   -0.507    2.701   32.831   26.378 
 2274   48.585   -0.508    2.701   32.831   26.378 
 2275   48.219   -0.509    2.701   32.831   26.378 
 2276   47.735   -0.518    2.701   32.832   26.379 
 2277   47.186   -0.518    2.701   32.836   26.382 
 2278   46.734   -0.518    2.700   32.836   26.382 
 2279   46.433   -0.518    2.700   32.836   26.382 
 2280   46.207   -0.522    2.700   32.836   26.382 
 2281   45.916   -0.522    2.700   32.836   26.382 
 2282   45.496   -0.522    2.700   32.841   26.386 
 2283   45.001   -0.522    2.700   32.841   26.387 
 2284   44.582   -0.522    2.700   32.841   26.387 
 2285   44.237   -0.522    2.700   32.841   26.387 
 2286   43.807   -0.522    2.701   32.841   26.387 
 2287   43.247   -0.515    2.701   32.839   26.385 
 2288   42.645   -0.417    2.701   32.739   26.300 
 2289   42.214   -0.403    2.702   32.734   26.295 
 2290   41.870   -0.390    2.703   32.734   26.294 
 2291   41.482   -0.384    2.703   32.732   26.293 
 2292   40.955   -0.375    2.703   32.714   26.277 
 2293   40.266   -0.365    2.703   32.713   26.276 
 2294   39.620   -0.330    2.703   32.688   26.255 
 2295   39.136   -0.320    2.704   32.683   26.254 
 2296   38.792   -0.320    2.705   32.683   26.254 
 2297   38.415   -0.316    2.705   32.683   26.254 
 2298   37.974   -0.313    2.705   32.688   26.254 
 2299   37.489   -0.305    2.706   32.692   26.257 
 2300   36.941   -0.304    2.706   32.693   26.257 
 2301   36.445   -0.305    2.706   32.693   26.258 
 2302   36.101   -0.307    2.707   32.693   26.258 
 2303   35.811   -0.304    2.707   32.694   26.258 
 2304   35.531   -0.304    2.707   32.694   26.258 
 2305   35.132   -0.294    2.707   32.694   26.258 
 2306   34.530   -0.289    2.723   32.684   26.250 
 2307   33.959   -0.040    2.725   32.666   26.224 
 2308   33.507    0.047    2.725   32.660   26.215 
 2309   33.152    0.071    2.730   32.601   26.167 
 2310   32.808    0.074    2.735   32.598   26.164 
 2311   32.356    0.130    2.730   32.598   26.164 
 2312   31.839    0.098    2.727   32.598   26.163 
 2313   31.387    0.074    2.730   32.598   26.161 
 2314   31.053    0.098    2.734   32.578   26.146 
 2315   30.773    0.121    2.734   32.578   26.145 
 2316   30.397    0.130    2.733   32.578   26.145 
 2317   29.891    0.130    2.730   32.549   26.121 
 2318   29.407    0.166    2.730   32.512   26.090 
 2319   29.008    0.166    2.730   32.511   26.090 
 2320   28.653    0.173    2.730   32.504   26.083 
 2321   28.266    0.184    2.730   32.492   26.073 
 2322   27.738    0.196    2.730   32.480   26.063 
 2323   27.136    0.223    2.730   32.442   26.031 
 2324   26.576    0.223    2.730   32.441   26.031 
 2325   26.038    0.223    2.730   32.441   26.030 
 2326   25.392    0.223    2.724   32.370   25.973 
 2327   24.682    0.170    2.715   32.315   25.933 
 2328   24.015    0.095    2.708   32.313   25.931 
 2329   23.358    0.042    2.705   32.301   25.931 
 2330   22.691    0.025    2.702   32.301   25.931 
 2331   21.959   -0.001    2.701   32.301   25.931 
 2332   21.249   -0.002    2.701   32.305   25.931 
 2333   20.614   -0.006    2.701   32.305   25.931 
 2334   20.011   -0.006    2.701   32.305   25.931 
 2335   19.387   -0.006    2.701   32.305   25.931 
 2336   18.752   -0.002    2.701   32.305   25.931 
 2337   18.095    0.059    2.706   32.305   25.929 
 2338   17.514    0.133    2.711   32.296   25.917 
 2339   16.944    0.189    2.714   32.296   25.914 
 2340   16.395    0.252    2.720   32.292   25.909 
 2341   15.835    0.337    2.727   32.284   25.898 
 2342   15.254    0.423    2.733   32.279   25.890 
 2343   14.694    0.500    2.739   32.279   25.885 
 2344   14.199    0.600    2.746   32.270   25.873 
 2345   13.747    0.683    2.753   32.265   25.865 
 2346   13.306    0.767    2.758   32.246   25.844 
 2347   12.810    0.830    2.759   32.198   25.803 
 2348   12.315    0.841    2.760   32.194   25.799 
 2349   11.842    0.846    2.761   32.190   25.795 
 2350   11.390    0.901    2.761   32.153   25.762 
 2351   10.981    0.967    2.763   32.101   25.717 
 2352   10.647    0.993    2.763   32.082   25.699 
 2353   10.432    1.002    2.764   32.080   25.698 
 2354   10.313    1.058    2.764   32.029   25.653 
 2355   10.206    1.076    2.764   32.015   25.641 
 2356   10.141    1.076    2.764   32.012   25.641 
 2357   10.001    1.078    2.765   32.012   25.641 
 2358    9.818    1.081    2.765   32.012   25.639 
 2359    9.624    1.081    2.765   32.015   25.639 
 2360    9.430    1.081    2.765   32.015   25.639 
 2361    9.333    1.081    2.766   32.012   25.639 
 2362    9.237    1.098    2.767   32.012   25.637 
 2363    9.097    1.125    2.767   31.996   25.623 
 2364    8.795    1.149    2.767   31.973   25.603 
 2365    8.418    1.149    2.767   31.972   25.603 
 2366    8.203    1.150    2.767   31.972   25.602 
 2367    8.203    1.169    2.766   31.940   25.575 
 2368    8.203    1.181    2.766   31.940   25.575 
 2369    8.203    1.181    2.766   31.940   25.575 
 2370    8.364    1.194    2.767   31.940   25.575 
 2371    8.364    1.199    2.769   31.937   25.575 
 2372    8.364    1.209    2.772   31.950   25.581 
 2373    8.364    1.216    2.772   31.968   25.595 
 2374    8.353    1.246    2.772   31.974   25.598 
 2375    8.353    1.246    2.776   31.978   25.601 
 2376    8.353    1.258    2.778   31.985   25.606 
 2377    8.353    1.262    2.778   31.991   25.606 
 2378    8.321    1.289    2.779   31.991   25.606 
 2379    8.321    1.294    2.783   31.991   25.606 
 2380    8.321    1.363    2.786   31.978   25.594 
 2381    8.321    1.411    2.786   31.968   25.583 
 2382    8.256    1.411    2.786   31.941   25.561 
 2383    8.235    1.411    2.788   31.941   25.561 
 2384    8.213    1.453    2.789   31.941   25.559 
 2385    8.127    1.464    2.789   31.935   25.553 
 2386    8.052    1.474    2.789   31.931   25.549 
 2387    7.976    1.474    2.798   31.924   25.543 
 2388    7.901    1.574    2.798   31.922   25.536 
 2389    7.761    1.582    2.798   31.922   25.535 
 2390    7.578    1.582    2.798   31.922   25.535 
 2391    7.395    1.582    2.795   31.905   25.522 
 2392    7.244    1.582    2.795   31.905   25.522 
 2393    7.180    1.562    2.795   31.905   25.522 
 2394    7.147    1.562    2.795   31.905   25.522 
 2395    7.061    1.562    2.795   31.907   25.525 
 2396    6.889    1.562    2.796   31.914   25.529 
 2397    6.685    1.569    2.797   31.914   25.529 
 2398    6.566    1.574    2.797   31.914   25.529 
 2399    6.512    1.578    2.797   31.914   25.529 
 2400    6.469    1.580    2.797   31.914   25.529 
 2401    6.426    1.584    2.797   31.914   25.528 
 2402    6.319    1.584    2.797   31.914   25.528 
 2403    6.190    1.587    2.797   31.914   25.528 
 2404    6.017    1.587    2.798   31.910   25.528 
 2405    6.017    1.591    2.804   31.914   25.528 
 2406    6.017    1.676    2.805   31.916   25.528 
 2407    6.017    1.734    2.807   31.982   25.571 
 2408    6.114    1.740    2.818   31.989   25.573 
 2409    6.114    1.761    2.823   31.982   25.573 
 2410    6.114    1.858    2.825   32.008   25.573 
 2411    6.114    1.877    2.829   32.008   25.571 
 2412    5.953    1.977    2.829   31.982   25.556 
 2413    5.781    1.977    2.838   31.942   25.524 
 2414    5.598    2.105    2.841   31.942   25.515 
 2415    5.361    2.108    2.841   31.942   25.515 
 2416    5.254    2.134    2.844   31.942   25.513 
 2417    5.146    2.134    2.847   31.933   25.506 
 2418    4.920    2.290    2.880   31.933   25.494 
 2419    4.748    2.735    2.880   31.774   25.332 
 2420    4.619    2.735    2.880   31.774   25.332 
 2421    4.339    2.735    2.880   31.774   25.332 
 2422    3.995    2.735    2.876   31.746   25.312 
 2423    3.736    2.716    2.876   31.746   25.312 
 2424    3.392    2.716    2.876   31.746   25.312 
 2425    3.123    2.716    2.876   31.746   25.312 
 2426    2.929    2.716    2.893   31.846   25.382 
 2427    2.682    2.834    2.893   31.846   25.382 
 2428    2.359    2.834    2.893   31.847   25.392 
 2429    2.058    2.834    2.905   31.906   25.408 
 2430    1.875    3.022    2.906   31.906   25.408 
 2431    1.735    3.092    2.919   31.906   25.408 
 2432    1.628    3.092    2.919   31.906   25.408 
 2433    1.477    3.092    2.928   31.906   25.408 
 2434    1.272    3.349    2.935   31.906   25.386 
 2435    0.971    3.371    2.936   31.906   25.384 
 2436    0.864    3.424    2.947   31.891   25.367 
 2437    0.853    3.501    2.952   31.840   25.320 
 2438    0.842    3.513    2.960   31.840   25.319 
 2439    0.821    3.710    2.965   31.840   25.301 
 2440    0.821    3.747    2.965   31.806   25.270 
 2441    0.842    3.762    2.965   31.796   25.261 
 2442    0.842    3.779    2.965   31.793   25.257 
 2443    0.842    3.779    2.965   31.782   25.253 
 2444    0.918    3.788    2.967   31.782   25.253 
 2445    0.972    3.809    2.968   31.782   25.253 
 2446    0.983    3.816    2.968   31.793   25.253 
 2447    0.983    3.817    2.972   31.800   25.253 
 2448    0.983    3.855    2.973   31.802   25.253 
 2449    0.972    3.881    2.976   31.805   25.253 
 2450    0.951    3.918    2.979   31.805   25.253 
 2451    0.951    3.936    2.980   31.802   25.249 
 2452    0.951    3.969    2.985   31.802   25.246 
 2453    0.951    4.010    2.986   31.798   25.239 
 2454    1.027    4.012    2.986   31.794   25.235 
 2455    1.048    4.020    2.986   31.790   25.232 
 2456    1.048    4.020    2.986   31.790   25.232 
 2457    1.048    4.020    2.986   31.790   25.232 
 2458    1.027    4.020    2.984   31.786   25.228 
 2459    0.855    3.983    2.981   31.767   25.228 
 2460    0.478    3.960    2.981   31.767   25.228 
 2461    0.339    3.959    2.979   31.767   25.228 
 2462    0.339    3.890    2.967   31.786   25.241 
 2463    0.339    3.770    2.966   31.791   25.256 
 2464    0.307    3.761    2.965   31.798   25.262 
 2465    0.339    3.754    2.965   31.798   25.263 
 2466    0.393    3.731    2.964   31.798   25.265 
 2467    0.393    3.731    2.964   31.798   25.266 
 2468    0.415    3.731    2.958   31.798   25.266 
 2469    0.533    3.675    2.958   31.796   25.269 
 2470    0.609    3.659    2.957   31.796   25.271 
 2471    0.652    3.657    2.956   31.796   25.271 
 2472    0.685    3.653    2.956   31.798   25.273 
 2473    0.685    3.653    2.957   31.804   25.276 
 2474    0.685    3.657    2.957   31.804   25.276 
 2475    0.674    3.659    2.958   31.804   25.276 
 2476    0.674    3.663    2.962   31.804   25.276 
 2477    0.632    3.721    2.962   31.803   25.270 
 2478    0.578    3.760    2.963   31.788   25.254 
 2479    0.567    3.760    2.964   31.783   25.251 
 2480    0.556    3.760    2.964   31.783   25.251 
 2481    0.535    3.765    2.964   31.783   25.250 
 2482    0.385    3.765    2.964   31.783   25.250 
 2483    0.364    3.765    2.966   31.783   25.250 
 2484    0.354    3.783    2.966   31.783   25.250 
 2485    0.299    3.791    2.967   31.789   25.253 
 2486    0.364    3.802    2.966   31.765   25.232 
 2487    0.354    3.797    2.966   31.766   25.234 
 2488    0.289    3.791    2.967   31.794   25.256 
